subject_ID,trial_no,stim_condition,answer,percept_resp,conf_resp,correct,percept_rt,conf_rt,stim_size,stim_dur,stim_contrast,stim_tilt_diff,text_stim_condition
1,1,4,0,1,2,0,541.0,2267.0,150.0,500.0,0.75,2.931591329751752,dur_high
1,2,5,0,0,1,1,2037.0,630.0,150.0,100.0,0.9,2.931591329751752,noise_high
1,3,3,1,1,3,1,1144.0,532.0,150.0,33.0,0.75,2.931591329751752,dur_low
1,4,9,0,0,2,1,1285.0,243.0,150.0,100.0,0.75,2.931591329751752,baseline
1,5,3,1,1,3,1,1714.0,356.0,150.0,33.0,0.75,2.931591329751752,dur_low
1,6,1,0,1,2,0,1160.0,469.0,75.0,100.0,0.75,2.931591329751752,size_low
1,7,9,1,1,3,1,770.0,347.0,150.0,100.0,0.75,2.931591329751752,baseline
1,8,9,0,0,2,1,945.0,220.0,150.0,100.0,0.75,2.931591329751752,baseline
1,9,1,1,1,2,1,1462.0,509.0,75.0,100.0,0.75,2.931591329751752,size_low
1,10,9,1,1,2,1,1967.0,739.0,150.0,100.0,0.75,2.931591329751752,baseline
1,11,9,1,1,3,1,760.0,501.0,150.0,100.0,0.75,2.931591329751752,baseline
1,12,6,0,0,2,1,1317.0,396.0,150.0,100.0,0.1,2.931591329751752,noise_low
1,13,2,0,0,3,1,555.0,333.0,225.0,100.0,0.75,2.931591329751752,size_high
1,14,8,0,0,2,1,621.0,444.0,150.0,100.0,0.75,5.863182659503503,tilt_high
1,15,8,1,1,3,1,474.0,459.0,150.0,100.0,0.75,5.863182659503503,tilt_high
1,16,4,1,1,2,1,1516.0,436.0,150.0,500.0,0.75,2.931591329751752,dur_high
1,17,6,1,1,1,1,1018.0,245.0,150.0,100.0,0.1,2.931591329751752,noise_low
1,18,5,0,1,3,0,879.0,133.0,150.0,100.0,0.9,2.931591329751752,noise_high
1,19,3,1,1,2,1,1134.0,179.0,150.0,33.0,0.75,2.931591329751752,dur_low
1,20,6,0,1,2,0,1391.0,420.0,150.0,100.0,0.1,2.931591329751752,noise_low
1,21,1,0,1,2,0,1518.0,123.0,75.0,100.0,0.75,2.931591329751752,size_low
1,22,8,1,1,4,1,1043.0,581.0,150.0,100.0,0.75,5.863182659503503,tilt_high
1,23,4,1,1,4,1,3123.0,220.0,150.0,500.0,0.75,2.931591329751752,dur_high
1,24,9,1,1,2,1,1339.0,213.0,150.0,100.0,0.75,2.931591329751752,baseline
1,25,9,0,0,2,1,829.0,228.0,150.0,100.0,0.75,2.931591329751752,baseline
1,26,5,0,0,3,1,515.0,340.0,150.0,100.0,0.9,2.931591329751752,noise_high
1,27,3,1,1,2,1,922.0,157.0,150.0,33.0,0.75,2.931591329751752,dur_low
1,28,3,0,0,3,1,1017.0,229.0,150.0,33.0,0.75,2.931591329751752,dur_low
1,29,4,1,1,2,1,593.0,140.0,150.0,500.0,0.75,2.931591329751752,dur_high
1,30,2,0,0,4,1,640.0,376.0,225.0,100.0,0.75,2.931591329751752,size_high
1,31,9,0,0,3,1,580.0,291.0,150.0,100.0,0.75,2.931591329751752,baseline
1,32,3,1,0,2,0,823.0,115.0,150.0,33.0,0.75,2.931591329751752,dur_low
1,33,2,0,0,3,1,617.0,205.0,225.0,100.0,0.75,2.931591329751752,size_high
1,34,3,0,0,4,1,493.0,173.0,150.0,33.0,0.75,2.931591329751752,dur_low
1,35,7,0,1,1,0,733.0,185.0,150.0,100.0,0.75,1.4657956648758756,tilt_low
1,36,5,0,0,2,1,972.0,139.0,150.0,100.0,0.9,2.931591329751752,noise_high
1,37,1,1,0,1,0,819.0,337.0,75.0,100.0,0.75,2.931591329751752,size_low
1,38,9,0,0,3,1,914.0,165.0,150.0,100.0,0.75,2.931591329751752,baseline
1,39,5,1,0,3,0,635.0,107.0,150.0,100.0,0.9,2.931591329751752,noise_high
1,40,7,1,0,2,0,675.0,41.0,150.0,100.0,0.75,1.4657956648758756,tilt_low
1,41,5,1,0,2,0,900.0,142.0,150.0,100.0,0.9,2.931591329751752,noise_high
1,42,3,0,0,3,1,843.0,92.0,150.0,33.0,0.75,2.931591329751752,dur_low
1,43,6,1,1,1,1,690.0,171.0,150.0,100.0,0.1,2.931591329751752,noise_low
1,44,2,1,1,3,1,655.0,138.0,225.0,100.0,0.75,2.931591329751752,size_high
1,45,6,1,1,3,1,603.0,218.0,150.0,100.0,0.1,2.931591329751752,noise_low
1,46,3,0,0,2,1,776.0,78.0,150.0,33.0,0.75,2.931591329751752,dur_low
1,47,8,1,1,2,1,786.0,68.0,150.0,100.0,0.75,5.863182659503503,tilt_high
1,48,1,0,1,3,0,612.0,67.0,75.0,100.0,0.75,2.931591329751752,size_low
1,49,9,0,0,2,1,1046.0,110.0,150.0,100.0,0.75,2.931591329751752,baseline
1,50,3,1,1,4,1,1699.0,149.0,150.0,33.0,0.75,2.931591329751752,dur_low
1,51,7,0,1,2,0,1214.0,109.0,150.0,100.0,0.75,1.4657956648758756,tilt_low
1,52,4,1,1,4,1,339.0,204.0,150.0,500.0,0.75,2.931591329751752,dur_high
1,53,5,0,1,4,0,893.0,163.0,150.0,100.0,0.9,2.931591329751752,noise_high
1,54,2,1,1,2,1,954.0,69.0,225.0,100.0,0.75,2.931591329751752,size_high
1,55,9,0,1,2,0,982.0,42.0,150.0,100.0,0.75,2.931591329751752,baseline
1,56,9,0,0,1,1,994.0,363.0,150.0,100.0,0.75,2.931591329751752,baseline
1,57,6,1,1,2,1,1610.0,125.0,150.0,100.0,0.1,2.931591329751752,noise_low
1,58,4,1,1,2,1,683.0,224.0,150.0,500.0,0.75,2.931591329751752,dur_high
1,59,1,1,1,3,1,1674.0,89.0,75.0,100.0,0.75,2.931591329751752,size_low
1,60,5,0,0,2,1,863.0,314.0,150.0,100.0,0.9,2.931591329751752,noise_high
1,61,8,0,0,4,1,668.0,133.0,150.0,100.0,0.75,5.863182659503503,tilt_high
1,62,8,1,1,2,1,1122.0,177.0,150.0,100.0,0.75,5.863182659503503,tilt_high
1,63,9,1,1,3,1,741.0,173.0,150.0,100.0,0.75,2.931591329751752,baseline
1,64,9,1,1,3,1,369.0,157.0,150.0,100.0,0.75,2.931591329751752,baseline
1,65,6,0,0,3,1,634.0,179.0,150.0,100.0,0.1,2.931591329751752,noise_low
1,66,8,0,0,4,1,401.0,179.0,150.0,100.0,0.75,5.863182659503503,tilt_high
1,67,5,1,1,2,1,683.0,76.0,150.0,100.0,0.9,2.931591329751752,noise_high
1,68,3,1,1,3,1,745.0,180.0,150.0,33.0,0.75,2.931591329751752,dur_low
1,69,3,1,1,2,1,682.0,65.0,150.0,33.0,0.75,2.931591329751752,dur_low
1,70,9,1,1,1,1,583.0,259.0,150.0,100.0,0.75,2.931591329751752,baseline
1,71,7,0,1,2,0,527.0,104.0,150.0,100.0,0.75,1.4657956648758756,tilt_low
1,72,2,0,0,3,1,884.0,148.0,225.0,100.0,0.75,2.931591329751752,size_high
1,73,1,1,1,2,1,716.0,99.0,75.0,100.0,0.75,2.931591329751752,size_low
1,74,3,0,1,3,0,1152.0,138.0,150.0,33.0,0.75,2.931591329751752,dur_low
1,75,4,0,1,3,0,255.0,131.0,150.0,500.0,0.75,2.931591329751752,dur_high
1,76,9,0,1,3,0,534.0,147.0,150.0,100.0,0.75,2.931591329751752,baseline
1,77,8,1,1,4,1,497.0,203.0,150.0,100.0,0.75,5.863182659503503,tilt_high
1,78,6,1,1,4,1,355.0,141.0,150.0,100.0,0.1,2.931591329751752,noise_low
1,79,4,1,1,2,1,571.0,182.0,150.0,500.0,0.75,2.931591329751752,dur_high
1,80,9,1,1,1,1,485.0,42.0,150.0,100.0,0.75,2.931591329751752,baseline
1,81,2,1,1,2,1,959.0,52.0,225.0,100.0,0.75,2.931591329751752,size_high
1,82,9,1,0,2,0,604.0,245.0,150.0,100.0,0.75,2.931591329751752,baseline
1,83,9,1,0,3,0,402.0,165.0,150.0,100.0,0.75,2.931591329751752,baseline
1,84,8,0,0,2,1,351.0,101.0,150.0,100.0,0.75,5.863182659503503,tilt_high
1,85,2,1,1,3,1,710.0,91.0,225.0,100.0,0.75,2.931591329751752,size_high
1,86,3,0,1,3,0,775.0,141.0,150.0,33.0,0.75,2.931591329751752,dur_low
1,87,2,1,0,2,0,910.0,158.0,225.0,100.0,0.75,2.931591329751752,size_high
1,88,9,1,1,1,1,659.0,107.0,150.0,100.0,0.75,2.931591329751752,baseline
1,89,8,0,0,1,1,504.0,117.0,150.0,100.0,0.75,5.863182659503503,tilt_high
1,90,9,1,0,1,0,394.0,156.0,150.0,100.0,0.75,2.931591329751752,baseline
1,91,7,0,0,3,1,711.0,66.0,150.0,100.0,0.75,1.4657956648758756,tilt_low
1,92,3,0,0,2,1,778.0,91.0,150.0,33.0,0.75,2.931591329751752,dur_low
1,93,1,0,1,2,0,1035.0,94.0,75.0,100.0,0.75,2.931591329751752,size_low
1,94,3,0,1,3,0,866.0,803.0,150.0,33.0,0.75,2.931591329751752,dur_low
1,95,7,1,0,2,0,927.0,77.0,150.0,100.0,0.75,1.4657956648758756,tilt_low
1,96,9,1,0,3,0,666.0,167.0,150.0,100.0,0.75,2.931591329751752,baseline
1,97,6,1,1,3,1,708.0,652.0,150.0,100.0,0.1,2.931591329751752,noise_low
1,98,4,1,0,2,0,389.0,109.0,150.0,500.0,0.75,2.931591329751752,dur_high
1,99,7,0,0,3,1,475.0,131.0,150.0,100.0,0.75,1.4657956648758756,tilt_low
1,100,3,0,0,2,1,655.0,102.0,150.0,33.0,0.75,2.931591329751752,dur_low
1,101,3,0,0,3,1,619.0,99.0,150.0,33.0,0.75,2.931591329751752,dur_low
1,102,9,0,0,3,1,999.0,120.0,150.0,100.0,0.75,2.931591329751752,baseline
1,103,9,1,1,3,1,897.0,34.0,150.0,100.0,0.75,2.931591329751752,baseline
1,104,9,1,1,2,1,830.0,165.0,150.0,100.0,0.75,2.931591329751752,baseline
1,105,8,0,0,3,1,465.0,163.0,150.0,100.0,0.75,5.863182659503503,tilt_high
1,106,9,1,1,2,1,599.0,157.0,150.0,100.0,0.75,2.931591329751752,baseline
1,107,8,0,0,4,1,394.0,149.0,150.0,100.0,0.75,5.863182659503503,tilt_high
1,108,7,1,1,2,1,691.0,88.0,150.0,100.0,0.75,1.4657956648758756,tilt_low
1,109,9,1,1,2,1,617.0,450.0,150.0,100.0,0.75,2.931591329751752,baseline
1,110,5,0,0,2,1,608.0,395.0,150.0,100.0,0.9,2.931591329751752,noise_high
1,111,5,1,1,1,1,757.0,44.0,150.0,100.0,0.9,2.931591329751752,noise_high
1,112,5,0,1,1,0,598.0,83.0,150.0,100.0,0.9,2.931591329751752,noise_high
1,113,1,0,1,1,0,821.0,116.0,75.0,100.0,0.75,2.931591329751752,size_low
1,114,6,0,0,3,1,800.0,122.0,150.0,100.0,0.1,2.931591329751752,noise_low
1,115,4,0,0,3,1,168.0,107.0,150.0,500.0,0.75,2.931591329751752,dur_high
1,116,6,1,1,4,1,420.0,178.0,150.0,100.0,0.1,2.931591329751752,noise_low
1,117,4,1,0,2,0,528.0,99.0,150.0,500.0,0.75,2.931591329751752,dur_high
1,118,1,1,0,1,0,462.0,123.0,75.0,100.0,0.75,2.931591329751752,size_low
1,119,3,1,1,1,1,810.0,125.0,150.0,33.0,0.75,2.931591329751752,dur_low
1,120,5,1,1,1,1,379.0,149.0,150.0,100.0,0.9,2.931591329751752,noise_high
1,121,7,1,1,1,1,714.0,91.0,150.0,100.0,0.75,1.4657956648758756,tilt_low
1,122,5,1,0,1,0,634.0,100.0,150.0,100.0,0.9,2.931591329751752,noise_high
1,123,9,0,0,4,1,564.0,128.0,150.0,100.0,0.75,2.931591329751752,baseline
1,124,4,1,0,2,0,729.0,205.0,150.0,500.0,0.75,2.931591329751752,dur_high
1,125,9,0,0,3,1,640.0,139.0,150.0,100.0,0.75,2.931591329751752,baseline
1,126,9,0,1,2,0,560.0,74.0,150.0,100.0,0.75,2.931591329751752,baseline
1,127,3,1,1,2,1,619.0,122.0,150.0,33.0,0.75,2.931591329751752,dur_low
1,128,3,1,1,2,1,673.0,81.0,150.0,33.0,0.75,2.931591329751752,dur_low
1,129,9,1,1,2,1,552.0,68.0,150.0,100.0,0.75,2.931591329751752,baseline
1,130,3,0,0,1,1,599.0,85.0,150.0,33.0,0.75,2.931591329751752,dur_low
1,131,2,1,0,2,0,529.0,219.0,225.0,100.0,0.75,2.931591329751752,size_high
1,132,2,0,0,3,1,502.0,221.0,225.0,100.0,0.75,2.931591329751752,size_high
1,133,9,0,0,2,1,633.0,147.0,150.0,100.0,0.75,2.931591329751752,baseline
1,134,8,1,1,1,1,507.0,104.0,150.0,100.0,0.75,5.863182659503503,tilt_high
1,135,9,1,0,3,0,651.0,292.0,150.0,100.0,0.75,2.931591329751752,baseline
1,136,9,0,0,3,1,435.0,150.0,150.0,100.0,0.75,2.931591329751752,baseline
1,137,5,1,1,1,1,490.0,69.0,150.0,100.0,0.9,2.931591329751752,noise_high
1,138,4,1,1,1,1,470.0,128.0,150.0,500.0,0.75,2.931591329751752,dur_high
1,139,3,1,0,3,0,663.0,195.0,150.0,33.0,0.75,2.931591329751752,dur_low
1,140,1,0,0,3,1,416.0,92.0,75.0,100.0,0.75,2.931591329751752,size_low
1,141,1,0,0,1,1,662.0,109.0,75.0,100.0,0.75,2.931591329751752,size_low
1,142,5,0,1,1,0,489.0,119.0,150.0,100.0,0.9,2.931591329751752,noise_high
1,143,6,0,0,1,1,1051.0,72.0,150.0,100.0,0.1,2.931591329751752,noise_low
1,144,9,1,0,1,0,630.0,83.0,150.0,100.0,0.75,2.931591329751752,baseline
1,145,9,0,0,1,1,474.0,114.0,150.0,100.0,0.75,2.931591329751752,baseline
1,146,7,0,0,1,1,435.0,104.0,150.0,100.0,0.75,1.4657956648758756,tilt_low
1,147,6,0,1,1,0,744.0,82.0,150.0,100.0,0.1,2.931591329751752,noise_low
1,148,7,0,1,1,0,615.0,96.0,150.0,100.0,0.75,1.4657956648758756,tilt_low
1,149,1,1,0,1,0,477.0,78.0,75.0,100.0,0.75,2.931591329751752,size_low
1,150,9,1,0,1,0,613.0,98.0,150.0,100.0,0.75,2.931591329751752,baseline
1,151,1,0,0,1,1,436.0,117.0,75.0,100.0,0.75,2.931591329751752,size_low
1,152,7,1,1,1,1,727.0,116.0,150.0,100.0,0.75,1.4657956648758756,tilt_low
1,153,3,1,1,3,1,678.0,109.0,150.0,33.0,0.75,2.931591329751752,dur_low
1,154,7,1,0,3,0,504.0,125.0,150.0,100.0,0.75,1.4657956648758756,tilt_low
1,155,2,1,1,3,1,684.0,218.0,225.0,100.0,0.75,2.931591329751752,size_high
1,156,8,0,0,4,1,471.0,243.0,150.0,100.0,0.75,5.863182659503503,tilt_high
1,157,7,0,1,2,0,557.0,146.0,150.0,100.0,0.75,1.4657956648758756,tilt_low
1,158,1,0,1,1,0,494.0,131.0,75.0,100.0,0.75,2.931591329751752,size_low
1,159,4,0,0,1,1,264.0,203.0,150.0,500.0,0.75,2.931591329751752,dur_high
1,160,8,0,0,1,1,424.0,78.0,150.0,100.0,0.75,5.863182659503503,tilt_high
1,161,8,1,1,1,1,728.0,192.0,150.0,100.0,0.75,5.863182659503503,tilt_high
1,162,3,1,1,1,1,928.0,117.0,150.0,33.0,0.75,2.931591329751752,dur_low
1,163,4,1,1,1,1,471.0,109.0,150.0,500.0,0.75,2.931591329751752,dur_high
1,164,6,0,1,1,0,590.0,123.0,150.0,100.0,0.1,2.931591329751752,noise_low
1,165,9,1,1,1,1,465.0,109.0,150.0,100.0,0.75,2.931591329751752,baseline
1,166,7,0,0,3,1,518.0,115.0,150.0,100.0,0.75,1.4657956648758756,tilt_low
1,167,5,0,0,3,1,458.0,77.0,150.0,100.0,0.9,2.931591329751752,noise_high
1,168,4,0,0,4,1,201.0,99.0,150.0,500.0,0.75,2.931591329751752,dur_high
1,169,8,0,0,3,1,467.0,107.0,150.0,100.0,0.75,5.863182659503503,tilt_high
1,170,4,0,0,2,1,713.0,117.0,150.0,500.0,0.75,2.931591329751752,dur_high
1,171,7,0,0,3,1,544.0,178.0,150.0,100.0,0.75,1.4657956648758756,tilt_low
1,172,1,1,1,2,1,445.0,122.0,75.0,100.0,0.75,2.931591329751752,size_low
1,173,5,1,1,1,1,593.0,66.0,150.0,100.0,0.9,2.931591329751752,noise_high
1,174,1,1,1,1,1,471.0,99.0,75.0,100.0,0.75,2.931591329751752,size_low
1,175,4,0,1,1,0,503.0,100.0,150.0,500.0,0.75,2.931591329751752,dur_high
1,176,2,0,0,3,1,798.0,100.0,225.0,100.0,0.75,2.931591329751752,size_high
1,177,4,1,1,2,1,230.0,81.0,150.0,500.0,0.75,2.931591329751752,dur_high
1,178,3,1,1,1,1,556.0,155.0,150.0,33.0,0.75,2.931591329751752,dur_low
1,179,9,1,0,3,0,514.0,101.0,150.0,100.0,0.75,2.931591329751752,baseline
1,180,6,1,1,1,1,599.0,109.0,150.0,100.0,0.1,2.931591329751752,noise_low
1,181,1,1,1,2,1,459.0,102.0,75.0,100.0,0.75,2.931591329751752,size_low
1,182,4,0,1,1,0,378.0,124.0,150.0,500.0,0.75,2.931591329751752,dur_high
1,183,8,1,1,1,1,546.0,90.0,150.0,100.0,0.75,5.863182659503503,tilt_high
1,184,6,0,1,3,0,833.0,33.0,150.0,100.0,0.1,2.931591329751752,noise_low
1,185,1,0,1,1,0,650.0,59.0,75.0,100.0,0.75,2.931591329751752,size_low
1,186,6,1,1,2,1,658.0,215.0,150.0,100.0,0.1,2.931591329751752,noise_low
1,187,7,1,1,2,1,559.0,248.0,150.0,100.0,0.75,1.4657956648758756,tilt_low
1,188,7,0,1,1,0,500.0,93.0,150.0,100.0,0.75,1.4657956648758756,tilt_low
1,189,5,0,1,1,0,608.0,60.0,150.0,100.0,0.9,2.931591329751752,noise_high
1,190,1,1,1,1,1,751.0,101.0,75.0,100.0,0.75,2.931591329751752,size_low
1,191,3,1,1,2,1,938.0,138.0,150.0,33.0,0.75,2.931591329751752,dur_low
1,192,3,0,0,2,1,768.0,91.0,150.0,33.0,0.75,2.931591329751752,dur_low
1,193,2,1,1,3,1,712.0,90.0,225.0,100.0,0.75,2.931591329751752,size_high
1,194,8,0,0,3,1,520.0,106.0,150.0,100.0,0.75,5.863182659503503,tilt_high
1,195,5,0,0,3,1,575.0,113.0,150.0,100.0,0.9,2.931591329751752,noise_high
1,196,9,0,0,2,1,482.0,165.0,150.0,100.0,0.75,2.931591329751752,baseline
1,197,7,1,1,3,1,712.0,196.0,150.0,100.0,0.75,1.4657956648758756,tilt_low
1,198,8,1,1,3,1,559.0,220.0,150.0,100.0,0.75,5.863182659503503,tilt_high
1,199,5,1,1,1,1,416.0,145.0,150.0,100.0,0.9,2.931591329751752,noise_high
1,200,2,0,1,4,0,849.0,172.0,225.0,100.0,0.75,2.931591329751752,size_high
1,201,7,1,1,1,1,601.0,181.0,150.0,100.0,0.75,1.4657956648758756,tilt_low
1,202,3,0,1,2,0,852.0,52.0,150.0,33.0,0.75,2.931591329751752,dur_low
1,203,8,1,1,2,1,432.0,101.0,150.0,100.0,0.75,5.863182659503503,tilt_high
1,204,3,1,1,4,1,557.0,367.0,150.0,33.0,0.75,2.931591329751752,dur_low
1,205,9,0,0,3,1,496.0,101.0,150.0,100.0,0.75,2.931591329751752,baseline
1,206,1,1,0,1,0,717.0,131.0,75.0,100.0,0.75,2.931591329751752,size_low
1,207,2,1,0,3,0,633.0,173.0,225.0,100.0,0.75,2.931591329751752,size_high
1,208,1,1,1,2,1,962.0,235.0,75.0,100.0,0.75,2.931591329751752,size_low
1,209,5,0,0,1,1,760.0,61.0,150.0,100.0,0.9,2.931591329751752,noise_high
1,210,6,1,1,2,1,661.0,144.0,150.0,100.0,0.1,2.931591329751752,noise_low
1,211,9,0,1,2,0,648.0,133.0,150.0,100.0,0.75,2.931591329751752,baseline
1,212,9,1,1,2,1,552.0,141.0,150.0,100.0,0.75,2.931591329751752,baseline
1,213,3,0,1,2,0,757.0,106.0,150.0,33.0,0.75,2.931591329751752,dur_low
1,214,3,1,1,2,1,613.0,50.0,150.0,33.0,0.75,2.931591329751752,dur_low
1,215,3,0,1,2,0,703.0,101.0,150.0,33.0,0.75,2.931591329751752,dur_low
1,216,1,0,1,2,0,654.0,77.0,75.0,100.0,0.75,2.931591329751752,size_low
1,217,9,0,1,3,0,651.0,229.0,150.0,100.0,0.75,2.931591329751752,baseline
1,218,4,0,1,2,0,139.0,103.0,150.0,500.0,0.75,2.931591329751752,dur_high
1,219,9,0,1,2,0,521.0,39.0,150.0,100.0,0.75,2.931591329751752,baseline
1,220,1,1,1,2,1,591.0,65.0,75.0,100.0,0.75,2.931591329751752,size_low
1,221,3,0,0,2,1,779.0,65.0,150.0,33.0,0.75,2.931591329751752,dur_low
1,222,4,1,1,2,1,323.0,18.0,150.0,500.0,0.75,2.931591329751752,dur_high
1,223,9,0,1,2,0,597.0,48.0,150.0,100.0,0.75,2.931591329751752,baseline
1,224,5,0,0,1,1,576.0,63.0,150.0,100.0,0.9,2.931591329751752,noise_high
1,225,8,1,1,4,1,933.0,165.0,150.0,100.0,0.75,5.863182659503503,tilt_high
1,226,7,1,1,2,1,665.0,56.0,150.0,100.0,0.75,1.4657956648758756,tilt_low
1,227,4,1,1,2,1,78.0,200.0,150.0,500.0,0.75,2.931591329751752,dur_high
1,228,3,1,1,2,1,585.0,78.0,150.0,33.0,0.75,2.931591329751752,dur_low
1,229,2,1,1,3,1,684.0,109.0,225.0,100.0,0.75,2.931591329751752,size_high
1,230,9,1,0,3,0,422.0,117.0,150.0,100.0,0.75,2.931591329751752,baseline
1,231,9,1,1,2,1,694.0,107.0,150.0,100.0,0.75,2.931591329751752,baseline
1,232,6,0,0,3,1,556.0,79.0,150.0,100.0,0.1,2.931591329751752,noise_low
1,233,9,0,0,2,1,692.0,178.0,150.0,100.0,0.75,2.931591329751752,baseline
1,234,9,0,0,1,1,421.0,57.0,150.0,100.0,0.75,2.931591329751752,baseline
1,235,1,0,0,4,1,544.0,147.0,75.0,100.0,0.75,2.931591329751752,size_low
1,236,1,1,1,2,1,618.0,52.0,75.0,100.0,0.75,2.931591329751752,size_low
1,237,2,0,0,1,1,705.0,84.0,225.0,100.0,0.75,2.931591329751752,size_high
1,238,6,1,1,2,1,794.0,57.0,150.0,100.0,0.1,2.931591329751752,noise_low
1,239,1,1,1,3,1,672.0,69.0,75.0,100.0,0.75,2.931591329751752,size_low
1,240,5,0,0,2,1,760.0,83.0,150.0,100.0,0.9,2.931591329751752,noise_high
1,241,2,1,1,2,1,704.0,78.0,225.0,100.0,0.75,2.931591329751752,size_high
1,242,9,0,0,2,1,592.0,65.0,150.0,100.0,0.75,2.931591329751752,baseline
1,243,7,1,0,2,0,612.0,108.0,150.0,100.0,0.75,1.4657956648758756,tilt_low
1,244,9,0,0,2,1,864.0,101.0,150.0,100.0,0.75,2.931591329751752,baseline
1,245,4,0,0,3,1,181.0,68.0,150.0,500.0,0.75,2.931591329751752,dur_high
1,246,8,1,1,2,1,495.0,117.0,150.0,100.0,0.75,5.863182659503503,tilt_high
1,247,4,0,0,4,1,120.0,90.0,150.0,500.0,0.75,2.931591329751752,dur_high
1,248,7,1,1,2,1,571.0,120.0,150.0,100.0,0.75,1.4657956648758756,tilt_low
1,249,8,1,1,2,1,529.0,91.0,150.0,100.0,0.75,5.863182659503503,tilt_high
1,250,7,0,0,1,1,495.0,107.0,150.0,100.0,0.75,1.4657956648758756,tilt_low
1,251,4,1,1,4,1,428.0,212.0,150.0,500.0,0.75,2.931591329751752,dur_high
1,252,8,0,1,3,0,1350.0,74.0,150.0,100.0,0.75,5.863182659503503,tilt_high
1,253,4,0,0,4,1,104.0,109.0,150.0,500.0,0.75,2.931591329751752,dur_high
1,254,4,0,0,4,1,191.0,77.0,150.0,500.0,0.75,2.931591329751752,dur_high
1,255,1,0,1,1,0,564.0,106.0,75.0,100.0,0.75,2.931591329751752,size_low
1,256,5,1,1,1,1,487.0,93.0,150.0,100.0,0.9,2.931591329751752,noise_high
1,257,6,1,1,1,1,505.0,66.0,150.0,100.0,0.1,2.931591329751752,noise_low
1,258,2,0,1,3,0,782.0,116.0,225.0,100.0,0.75,2.931591329751752,size_high
1,259,1,0,1,4,0,571.0,120.0,75.0,100.0,0.75,2.931591329751752,size_low
1,260,2,0,0,4,1,519.0,91.0,225.0,100.0,0.75,2.931591329751752,size_high
1,261,8,1,0,4,0,590.0,109.0,150.0,100.0,0.75,5.863182659503503,tilt_high
1,262,1,0,0,4,1,579.0,165.0,75.0,100.0,0.75,2.931591329751752,size_low
1,263,2,1,1,2,1,1072.0,115.0,225.0,100.0,0.75,2.931591329751752,size_high
1,264,2,0,0,4,1,656.0,124.0,225.0,100.0,0.75,2.931591329751752,size_high
1,265,8,0,0,4,1,475.0,93.0,150.0,100.0,0.75,5.863182659503503,tilt_high
1,266,4,0,0,2,1,626.0,179.0,150.0,500.0,0.75,2.931591329751752,dur_high
1,267,2,0,0,2,1,650.0,129.0,225.0,100.0,0.75,2.931591329751752,size_high
1,268,4,0,1,1,0,131.0,59.0,150.0,500.0,0.75,2.931591329751752,dur_high
1,269,9,1,0,4,0,2240.0,109.0,150.0,100.0,0.75,2.931591329751752,baseline
1,270,3,0,1,3,0,826.0,400.0,150.0,33.0,0.75,2.931591329751752,dur_low
1,271,9,0,1,4,0,780.0,226.0,150.0,100.0,0.75,2.931591329751752,baseline
1,272,6,1,1,4,1,802.0,311.0,150.0,100.0,0.1,2.931591329751752,noise_low
1,273,7,0,1,4,0,608.0,94.0,150.0,100.0,0.75,1.4657956648758756,tilt_low
1,274,5,1,1,4,1,534.0,99.0,150.0,100.0,0.9,2.931591329751752,noise_high
1,275,9,0,1,3,0,695.0,44.0,150.0,100.0,0.75,2.931591329751752,baseline
1,276,7,0,1,2,0,501.0,186.0,150.0,100.0,0.75,1.4657956648758756,tilt_low
1,277,1,1,1,1,1,738.0,148.0,75.0,100.0,0.75,2.931591329751752,size_low
1,278,2,0,1,3,0,894.0,77.0,225.0,100.0,0.75,2.931591329751752,size_high
1,279,9,1,1,2,1,608.0,131.0,150.0,100.0,0.75,2.931591329751752,baseline
1,280,8,1,1,3,1,563.0,293.0,150.0,100.0,0.75,5.863182659503503,tilt_high
1,281,9,1,1,2,1,491.0,195.0,150.0,100.0,0.75,2.931591329751752,baseline
1,282,3,0,1,3,0,532.0,77.0,150.0,33.0,0.75,2.931591329751752,dur_low
1,283,9,0,1,3,0,584.0,76.0,150.0,100.0,0.75,2.931591329751752,baseline
1,284,8,1,1,3,1,473.0,76.0,150.0,100.0,0.75,5.863182659503503,tilt_high
1,285,4,0,0,4,1,252.0,72.0,150.0,500.0,0.75,2.931591329751752,dur_high
1,286,9,1,1,2,1,484.0,93.0,150.0,100.0,0.75,2.931591329751752,baseline
1,287,1,1,1,1,1,493.0,587.0,75.0,100.0,0.75,2.931591329751752,size_low
1,288,1,0,1,2,0,657.0,218.0,75.0,100.0,0.75,2.931591329751752,size_low
1,289,2,0,1,3,0,634.0,34.0,225.0,100.0,0.75,2.931591329751752,size_high
1,290,8,0,0,3,1,413.0,117.0,150.0,100.0,0.75,5.863182659503503,tilt_high
1,291,9,0,1,3,0,508.0,93.0,150.0,100.0,0.75,2.931591329751752,baseline
1,292,5,1,1,1,1,537.0,76.0,150.0,100.0,0.9,2.931591329751752,noise_high
1,293,7,0,0,3,1,531.0,114.0,150.0,100.0,0.75,1.4657956648758756,tilt_low
1,294,2,1,1,1,1,479.0,98.0,225.0,100.0,0.75,2.931591329751752,size_high
1,295,8,1,1,2,1,654.0,173.0,150.0,100.0,0.75,5.863182659503503,tilt_high
1,296,9,1,1,2,1,186.0,118.0,150.0,100.0,0.75,2.931591329751752,baseline
1,297,8,1,1,3,1,918.0,89.0,150.0,100.0,0.75,5.863182659503503,tilt_high
1,298,3,1,0,1,0,788.0,18.0,150.0,33.0,0.75,2.931591329751752,dur_low
1,299,8,1,1,2,1,516.0,162.0,150.0,100.0,0.75,5.863182659503503,tilt_high
1,300,9,0,0,4,1,341.0,392.0,150.0,100.0,0.75,2.931591329751752,baseline
1,301,1,1,1,2,1,502.0,143.0,75.0,100.0,0.75,2.931591329751752,size_low
1,302,9,1,1,1,1,775.0,68.0,150.0,100.0,0.75,2.931591329751752,baseline
1,303,3,0,0,4,1,583.0,87.0,150.0,33.0,0.75,2.931591329751752,dur_low
1,304,2,0,0,4,1,441.0,133.0,225.0,100.0,0.75,2.931591329751752,size_high
1,305,8,0,1,1,0,499.0,120.0,150.0,100.0,0.75,5.863182659503503,tilt_high
1,306,3,1,1,2,1,632.0,27.0,150.0,33.0,0.75,2.931591329751752,dur_low
1,307,2,1,1,3,1,536.0,62.0,225.0,100.0,0.75,2.931591329751752,size_high
1,308,5,1,1,1,1,549.0,59.0,150.0,100.0,0.9,2.931591329751752,noise_high
1,309,3,1,1,3,1,991.0,132.0,150.0,33.0,0.75,2.931591329751752,dur_low
1,310,4,0,0,4,1,551.0,289.0,150.0,500.0,0.75,2.931591329751752,dur_high
1,311,2,1,1,1,1,527.0,90.0,225.0,100.0,0.75,2.931591329751752,size_high
1,312,2,1,1,3,1,440.0,125.0,225.0,100.0,0.75,2.931591329751752,size_high
1,313,3,0,0,3,1,653.0,43.0,150.0,33.0,0.75,2.931591329751752,dur_low
1,314,3,1,1,2,1,582.0,147.0,150.0,33.0,0.75,2.931591329751752,dur_low
1,315,2,0,0,4,1,922.0,153.0,225.0,100.0,0.75,2.931591329751752,size_high
1,316,9,0,0,4,1,501.0,76.0,150.0,100.0,0.75,2.931591329751752,baseline
1,317,6,1,1,2,1,536.0,76.0,150.0,100.0,0.1,2.931591329751752,noise_low
1,318,2,0,1,2,0,664.0,67.0,225.0,100.0,0.75,2.931591329751752,size_high
1,319,6,1,1,2,1,782.0,156.0,150.0,100.0,0.1,2.931591329751752,noise_low
1,320,7,0,0,3,1,519.0,235.0,150.0,100.0,0.75,1.4657956648758756,tilt_low
1,321,8,1,1,2,1,559.0,107.0,150.0,100.0,0.75,5.863182659503503,tilt_high
1,322,1,1,0,2,0,544.0,249.0,75.0,100.0,0.75,2.931591329751752,size_low
1,323,5,0,1,1,0,751.0,19.0,150.0,100.0,0.9,2.931591329751752,noise_high
1,324,6,0,0,2,1,642.0,77.0,150.0,100.0,0.1,2.931591329751752,noise_low
1,325,9,1,0,2,0,431.0,116.0,150.0,100.0,0.75,2.931591329751752,baseline
1,326,6,1,0,2,0,517.0,132.0,150.0,100.0,0.1,2.931591329751752,noise_low
1,327,4,1,0,1,0,276.0,79.0,150.0,500.0,0.75,2.931591329751752,dur_high
1,328,2,0,0,1,1,523.0,91.0,225.0,100.0,0.75,2.931591329751752,size_high
1,329,9,0,0,2,1,657.0,155.0,150.0,100.0,0.75,2.931591329751752,baseline
1,330,1,1,1,3,1,664.0,74.0,75.0,100.0,0.75,2.931591329751752,size_low
1,331,4,1,1,2,1,348.0,275.0,150.0,500.0,0.75,2.931591329751752,dur_high
1,332,5,1,1,1,1,554.0,40.0,150.0,100.0,0.9,2.931591329751752,noise_high
1,333,5,1,1,1,1,427.0,51.0,150.0,100.0,0.9,2.931591329751752,noise_high
1,334,4,1,1,1,1,411.0,186.0,150.0,500.0,0.75,2.931591329751752,dur_high
1,335,9,0,0,2,1,648.0,103.0,150.0,100.0,0.75,2.931591329751752,baseline
1,336,9,1,0,3,0,558.0,63.0,150.0,100.0,0.75,2.931591329751752,baseline
1,337,8,1,1,2,1,718.0,124.0,150.0,100.0,0.75,5.863182659503503,tilt_high
1,338,4,1,1,1,1,681.0,116.0,150.0,500.0,0.75,2.931591329751752,dur_high
1,339,6,0,1,3,0,604.0,47.0,150.0,100.0,0.1,2.931591329751752,noise_low
1,340,7,1,1,3,1,585.0,88.0,150.0,100.0,0.75,1.4657956648758756,tilt_low
1,341,9,0,1,1,0,616.0,115.0,150.0,100.0,0.75,2.931591329751752,baseline
1,342,8,0,1,2,0,605.0,108.0,150.0,100.0,0.75,5.863182659503503,tilt_high
1,343,8,1,1,2,1,558.0,108.0,150.0,100.0,0.75,5.863182659503503,tilt_high
1,344,9,0,1,3,0,544.0,68.0,150.0,100.0,0.75,2.931591329751752,baseline
1,345,7,1,1,3,1,606.0,68.0,150.0,100.0,0.75,1.4657956648758756,tilt_low
1,346,9,1,1,2,1,484.0,84.0,150.0,100.0,0.75,2.931591329751752,baseline
1,347,6,1,1,4,1,692.0,298.0,150.0,100.0,0.1,2.931591329751752,noise_low
1,348,7,0,1,3,0,610.0,96.0,150.0,100.0,0.75,1.4657956648758756,tilt_low
1,349,1,1,1,1,1,385.0,220.0,75.0,100.0,0.75,2.931591329751752,size_low
1,350,7,1,1,3,1,587.0,72.0,150.0,100.0,0.75,1.4657956648758756,tilt_low
1,351,2,0,1,3,0,514.0,211.0,225.0,100.0,0.75,2.931591329751752,size_high
1,352,3,0,1,4,0,810.0,83.0,150.0,33.0,0.75,2.931591329751752,dur_low
1,353,9,0,1,1,0,576.0,107.0,150.0,100.0,0.75,2.931591329751752,baseline
1,354,1,0,1,1,0,642.0,180.0,75.0,100.0,0.75,2.931591329751752,size_low
1,355,6,1,1,3,1,632.0,170.0,150.0,100.0,0.1,2.931591329751752,noise_low
1,356,3,0,0,3,1,594.0,165.0,150.0,33.0,0.75,2.931591329751752,dur_low
1,357,7,0,0,3,1,445.0,68.0,150.0,100.0,0.75,1.4657956648758756,tilt_low
1,358,9,1,1,1,1,534.0,115.0,150.0,100.0,0.75,2.931591329751752,baseline
1,359,1,0,1,1,0,535.0,101.0,75.0,100.0,0.75,2.931591329751752,size_low
1,360,2,1,1,3,1,656.0,101.0,225.0,100.0,0.75,2.931591329751752,size_high
1,361,7,1,1,3,1,552.0,176.0,150.0,100.0,0.75,1.4657956648758756,tilt_low
1,362,5,1,1,3,1,478.0,76.0,150.0,100.0,0.9,2.931591329751752,noise_high
1,363,7,1,1,1,1,1071.0,357.0,150.0,100.0,0.75,1.4657956648758756,tilt_low
1,364,8,1,1,1,1,576.0,176.0,150.0,100.0,0.75,5.863182659503503,tilt_high
1,365,8,1,1,4,1,530.0,171.0,150.0,100.0,0.75,5.863182659503503,tilt_high
1,366,3,0,0,4,1,758.0,117.0,150.0,33.0,0.75,2.931591329751752,dur_low
1,367,6,0,0,4,1,508.0,175.0,150.0,100.0,0.1,2.931591329751752,noise_low
1,368,7,1,1,2,1,496.0,168.0,150.0,100.0,0.75,1.4657956648758756,tilt_low
1,369,1,0,1,2,0,1315.0,179.0,75.0,100.0,0.75,2.931591329751752,size_low
1,370,6,0,0,3,1,578.0,169.0,150.0,100.0,0.1,2.931591329751752,noise_low
1,371,3,0,1,2,0,570.0,115.0,150.0,33.0,0.75,2.931591329751752,dur_low
1,372,6,0,0,3,1,589.0,109.0,150.0,100.0,0.1,2.931591329751752,noise_low
1,373,8,0,0,2,1,475.0,261.0,150.0,100.0,0.75,5.863182659503503,tilt_high
1,374,9,0,0,2,1,508.0,196.0,150.0,100.0,0.75,2.931591329751752,baseline
1,375,5,0,1,1,0,442.0,49.0,150.0,100.0,0.9,2.931591329751752,noise_high
1,376,9,0,1,1,0,853.0,91.0,150.0,100.0,0.75,2.931591329751752,baseline
1,377,9,0,0,2,1,623.0,277.0,150.0,100.0,0.75,2.931591329751752,baseline
1,378,8,1,1,1,1,629.0,76.0,150.0,100.0,0.75,5.863182659503503,tilt_high
1,379,6,0,1,1,0,886.0,77.0,150.0,100.0,0.1,2.931591329751752,noise_low
1,380,6,0,0,1,1,718.0,98.0,150.0,100.0,0.1,2.931591329751752,noise_low
1,381,1,0,0,1,1,710.0,70.0,75.0,100.0,0.75,2.931591329751752,size_low
1,382,1,0,0,1,1,474.0,260.0,75.0,100.0,0.75,2.931591329751752,size_low
1,383,2,1,1,2,1,742.0,84.0,225.0,100.0,0.75,2.931591329751752,size_high
1,384,9,0,0,2,1,614.0,156.0,150.0,100.0,0.75,2.931591329751752,baseline
1,385,1,0,1,2,0,679.0,130.0,75.0,100.0,0.75,2.931591329751752,size_low
1,386,9,1,1,3,1,633.0,95.0,150.0,100.0,0.75,2.931591329751752,baseline
1,387,6,0,1,3,0,543.0,85.0,150.0,100.0,0.1,2.931591329751752,noise_low
1,388,4,1,1,3,1,160.0,172.0,150.0,500.0,0.75,2.931591329751752,dur_high
1,389,8,0,0,4,1,493.0,229.0,150.0,100.0,0.75,5.863182659503503,tilt_high
1,390,1,0,0,4,1,672.0,188.0,75.0,100.0,0.75,2.931591329751752,size_low
1,391,9,1,0,4,0,657.0,84.0,150.0,100.0,0.75,2.931591329751752,baseline
1,392,2,0,0,4,1,721.0,74.0,225.0,100.0,0.75,2.931591329751752,size_high
1,393,8,0,0,4,1,684.0,109.0,150.0,100.0,0.75,5.863182659503503,tilt_high
1,394,4,0,0,3,1,40.0,148.0,150.0,500.0,0.75,2.931591329751752,dur_high
1,395,8,0,0,3,1,476.0,187.0,150.0,100.0,0.75,5.863182659503503,tilt_high
1,396,1,1,0,1,0,609.0,91.0,75.0,100.0,0.75,2.931591329751752,size_low
1,397,3,1,0,2,0,854.0,76.0,150.0,33.0,0.75,2.931591329751752,dur_low
1,398,9,1,1,4,1,471.0,235.0,150.0,100.0,0.75,2.931591329751752,baseline
1,399,8,0,0,4,1,468.0,164.0,150.0,100.0,0.75,5.863182659503503,tilt_high
1,400,7,0,1,1,0,540.0,155.0,150.0,100.0,0.75,1.4657956648758756,tilt_low
1,401,1,0,0,1,1,638.0,100.0,75.0,100.0,0.75,2.931591329751752,size_low
1,402,6,1,1,1,1,755.0,195.0,150.0,100.0,0.1,2.931591329751752,noise_low
1,403,6,1,1,3,1,661.0,106.0,150.0,100.0,0.1,2.931591329751752,noise_low
1,404,9,1,1,3,1,643.0,304.0,150.0,100.0,0.75,2.931591329751752,baseline
1,405,3,0,0,2,1,972.0,300.0,150.0,33.0,0.75,2.931591329751752,dur_low
1,406,9,1,1,1,1,860.0,68.0,150.0,100.0,0.75,2.931591329751752,baseline
1,407,5,1,1,1,1,590.0,92.0,150.0,100.0,0.9,2.931591329751752,noise_high
1,408,7,1,1,2,1,1375.0,244.0,150.0,100.0,0.75,1.4657956648758756,tilt_low
1,409,8,0,0,4,1,707.0,243.0,150.0,100.0,0.75,5.863182659503503,tilt_high
1,410,6,0,1,2,0,860.0,25.0,150.0,100.0,0.1,2.931591329751752,noise_low
1,411,6,0,1,2,0,941.0,116.0,150.0,100.0,0.1,2.931591329751752,noise_low
1,412,8,0,0,3,1,631.0,131.0,150.0,100.0,0.75,5.863182659503503,tilt_high
1,413,9,1,1,1,1,864.0,77.0,150.0,100.0,0.75,2.931591329751752,baseline
1,414,4,1,0,3,0,331.0,117.0,150.0,500.0,0.75,2.931591329751752,dur_high
1,415,9,0,0,3,1,677.0,50.0,150.0,100.0,0.75,2.931591329751752,baseline
1,416,7,1,0,1,0,609.0,219.0,150.0,100.0,0.75,1.4657956648758756,tilt_low
1,417,2,0,1,1,0,968.0,86.0,225.0,100.0,0.75,2.931591329751752,size_high
1,418,4,0,0,2,1,371.0,16.0,150.0,500.0,0.75,2.931591329751752,dur_high
1,419,5,0,0,1,1,672.0,84.0,150.0,100.0,0.9,2.931591329751752,noise_high
1,420,2,1,1,1,1,659.0,189.0,225.0,100.0,0.75,2.931591329751752,size_high
1,421,9,1,0,2,0,709.0,92.0,150.0,100.0,0.75,2.931591329751752,baseline
1,422,1,1,0,2,0,583.0,114.0,75.0,100.0,0.75,2.931591329751752,size_low
1,423,8,0,0,2,1,612.0,109.0,150.0,100.0,0.75,5.863182659503503,tilt_high
1,424,8,1,1,3,1,696.0,156.0,150.0,100.0,0.75,5.863182659503503,tilt_high
1,425,4,1,0,3,0,356.0,84.0,150.0,500.0,0.75,2.931591329751752,dur_high
1,426,9,1,1,1,1,909.0,223.0,150.0,100.0,0.75,2.931591329751752,baseline
1,427,6,1,1,2,1,632.0,192.0,150.0,100.0,0.1,2.931591329751752,noise_low
1,428,1,0,0,3,1,583.0,61.0,75.0,100.0,0.75,2.931591329751752,size_low
1,429,3,0,1,3,0,708.0,127.0,150.0,33.0,0.75,2.931591329751752,dur_low
1,430,7,1,1,3,1,579.0,73.0,150.0,100.0,0.75,1.4657956648758756,tilt_low
1,431,9,0,0,3,1,561.0,124.0,150.0,100.0,0.75,2.931591329751752,baseline
1,432,9,0,0,2,1,782.0,197.0,150.0,100.0,0.75,2.931591329751752,baseline
1,433,9,0,0,2,1,654.0,22.0,150.0,100.0,0.75,2.931591329751752,baseline
1,434,5,0,0,1,1,485.0,211.0,150.0,100.0,0.9,2.931591329751752,noise_high
1,435,4,0,1,1,0,510.0,123.0,150.0,500.0,0.75,2.931591329751752,dur_high
1,436,4,1,1,1,1,146.0,63.0,150.0,500.0,0.75,2.931591329751752,dur_high
1,437,6,0,1,1,0,615.0,134.0,150.0,100.0,0.1,2.931591329751752,noise_low
1,438,5,1,1,1,1,581.0,84.0,150.0,100.0,0.9,2.931591329751752,noise_high
1,439,8,0,0,3,1,564.0,115.0,150.0,100.0,0.75,5.863182659503503,tilt_high
1,440,2,0,1,2,0,491.0,148.0,225.0,100.0,0.75,2.931591329751752,size_high
1,441,7,1,1,1,1,491.0,141.0,150.0,100.0,0.75,1.4657956648758756,tilt_low
1,442,5,0,1,1,0,612.0,87.0,150.0,100.0,0.9,2.931591329751752,noise_high
1,443,9,0,0,2,1,733.0,142.0,150.0,100.0,0.75,2.931591329751752,baseline
1,444,2,0,0,2,1,604.0,266.0,225.0,100.0,0.75,2.931591329751752,size_high
1,445,9,1,1,4,1,657.0,87.0,150.0,100.0,0.75,2.931591329751752,baseline
1,446,3,1,1,1,1,977.0,63.0,150.0,33.0,0.75,2.931591329751752,dur_low
1,447,7,0,1,1,0,711.0,87.0,150.0,100.0,0.75,1.4657956648758756,tilt_low
1,448,3,1,1,3,1,734.0,350.0,150.0,33.0,0.75,2.931591329751752,dur_low
1,449,2,0,1,1,0,855.0,75.0,225.0,100.0,0.75,2.931591329751752,size_high
1,450,2,0,0,2,1,640.0,147.0,225.0,100.0,0.75,2.931591329751752,size_high
1,451,6,1,1,1,1,508.0,61.0,150.0,100.0,0.1,2.931591329751752,noise_low
1,452,6,1,1,3,1,492.0,117.0,150.0,100.0,0.1,2.931591329751752,noise_low
1,453,5,1,1,1,1,490.0,98.0,150.0,100.0,0.9,2.931591329751752,noise_high
1,454,2,0,0,2,1,724.0,103.0,225.0,100.0,0.75,2.931591329751752,size_high
1,455,6,1,1,1,1,764.0,172.0,150.0,100.0,0.1,2.931591329751752,noise_low
1,456,3,1,1,1,1,661.0,100.0,150.0,33.0,0.75,2.931591329751752,dur_low
1,457,6,1,1,2,1,177.0,492.0,150.0,100.0,0.1,2.931591329751752,noise_low
1,458,6,0,0,3,1,599.0,93.0,150.0,100.0,0.1,2.931591329751752,noise_low
1,459,1,1,1,1,1,488.0,67.0,75.0,100.0,0.75,2.931591329751752,size_low
1,460,2,1,1,1,1,707.0,140.0,225.0,100.0,0.75,2.931591329751752,size_high
1,461,9,1,1,2,1,583.0,155.0,150.0,100.0,0.75,2.931591329751752,baseline
1,462,9,0,0,3,1,565.0,88.0,150.0,100.0,0.75,2.931591329751752,baseline
1,463,6,0,1,3,0,690.0,164.0,150.0,100.0,0.1,2.931591329751752,noise_low
1,464,7,0,1,1,0,806.0,140.0,150.0,100.0,0.75,1.4657956648758756,tilt_low
1,465,3,1,1,1,1,744.0,84.0,150.0,33.0,0.75,2.931591329751752,dur_low
1,466,5,1,1,1,1,556.0,93.0,150.0,100.0,0.9,2.931591329751752,noise_high
1,467,5,1,1,1,1,604.0,120.0,150.0,100.0,0.9,2.931591329751752,noise_high
1,468,7,1,0,3,0,697.0,100.0,150.0,100.0,0.75,1.4657956648758756,tilt_low
1,469,8,0,0,3,1,574.0,92.0,150.0,100.0,0.75,5.863182659503503,tilt_high
1,470,9,1,1,1,1,967.0,67.0,150.0,100.0,0.75,2.931591329751752,baseline
1,471,1,1,1,3,1,581.0,82.0,75.0,100.0,0.75,2.931591329751752,size_low
1,472,5,1,1,1,1,672.0,71.0,150.0,100.0,0.9,2.931591329751752,noise_high
1,473,8,0,0,3,1,655.0,88.0,150.0,100.0,0.75,5.863182659503503,tilt_high
1,474,4,0,0,1,1,502.0,203.0,150.0,500.0,0.75,2.931591329751752,dur_high
1,475,7,0,1,3,0,1007.0,124.0,150.0,100.0,0.75,1.4657956648758756,tilt_low
1,476,9,0,1,1,0,651.0,87.0,150.0,100.0,0.75,2.931591329751752,baseline
1,477,9,1,1,3,1,703.0,111.0,150.0,100.0,0.75,2.931591329751752,baseline
1,478,9,1,1,3,1,738.0,100.0,150.0,100.0,0.75,2.931591329751752,baseline
1,479,1,0,0,3,1,744.0,222.0,75.0,100.0,0.75,2.931591329751752,size_low
1,480,6,0,1,2,0,637.0,104.0,150.0,100.0,0.1,2.931591329751752,noise_low
1,481,2,1,1,3,1,574.0,418.0,225.0,100.0,0.75,2.931591329751752,size_high
1,482,4,0,0,4,1,192.0,104.0,150.0,500.0,0.75,2.931591329751752,dur_high
1,483,6,0,1,2,0,442.0,236.0,150.0,100.0,0.1,2.931591329751752,noise_low
1,484,9,1,1,2,1,458.0,133.0,150.0,100.0,0.75,2.931591329751752,baseline
1,485,4,1,1,1,1,651.0,132.0,150.0,500.0,0.75,2.931591329751752,dur_high
1,486,8,1,1,3,1,483.0,228.0,150.0,100.0,0.75,5.863182659503503,tilt_high
1,487,2,1,1,2,1,598.0,204.0,225.0,100.0,0.75,2.931591329751752,size_high
1,488,8,0,0,4,1,523.0,132.0,150.0,100.0,0.75,5.863182659503503,tilt_high
1,489,9,0,1,2,0,707.0,100.0,150.0,100.0,0.75,2.931591329751752,baseline
1,490,9,0,0,3,1,495.0,63.0,150.0,100.0,0.75,2.931591329751752,baseline
1,491,9,0,0,3,1,486.0,127.0,150.0,100.0,0.75,2.931591329751752,baseline
1,492,4,0,0,1,1,467.0,112.0,150.0,500.0,0.75,2.931591329751752,dur_high
1,493,8,1,1,3,1,530.0,255.0,150.0,100.0,0.75,5.863182659503503,tilt_high
1,494,7,0,0,1,1,642.0,348.0,150.0,100.0,0.75,1.4657956648758756,tilt_low
1,495,6,1,1,2,1,616.0,107.0,150.0,100.0,0.1,2.931591329751752,noise_low
1,496,7,1,0,3,0,706.0,70.0,150.0,100.0,0.75,1.4657956648758756,tilt_low
1,497,6,1,0,2,0,562.0,77.0,150.0,100.0,0.1,2.931591329751752,noise_low
1,498,1,0,0,3,1,572.0,143.0,75.0,100.0,0.75,2.931591329751752,size_low
1,499,7,1,1,1,1,985.0,87.0,150.0,100.0,0.75,1.4657956648758756,tilt_low
1,500,1,1,1,3,1,645.0,127.0,75.0,100.0,0.75,2.931591329751752,size_low
1,501,4,0,0,3,1,142.0,72.0,150.0,500.0,0.75,2.931591329751752,dur_high
1,502,7,0,0,2,1,721.0,356.0,150.0,100.0,0.75,1.4657956648758756,tilt_low
1,503,1,1,1,2,1,631.0,88.0,75.0,100.0,0.75,2.931591329751752,size_low
1,504,6,0,1,2,0,966.0,42.0,150.0,100.0,0.1,2.931591329751752,noise_low
1,505,5,0,1,1,0,644.0,51.0,150.0,100.0,0.9,2.931591329751752,noise_high
1,506,4,1,1,1,1,342.0,106.0,150.0,500.0,0.75,2.931591329751752,dur_high
1,507,2,1,1,3,1,712.0,59.0,225.0,100.0,0.75,2.931591329751752,size_high
1,508,3,0,0,3,1,679.0,68.0,150.0,33.0,0.75,2.931591329751752,dur_low
1,509,5,0,1,1,0,536.0,92.0,150.0,100.0,0.9,2.931591329751752,noise_high
1,510,4,1,1,1,1,309.0,90.0,150.0,500.0,0.75,2.931591329751752,dur_high
1,511,9,1,1,1,1,703.0,93.0,150.0,100.0,0.75,2.931591329751752,baseline
1,512,5,1,1,1,1,748.0,108.0,150.0,100.0,0.9,2.931591329751752,noise_high
1,513,9,0,1,1,0,633.0,116.0,150.0,100.0,0.75,2.931591329751752,baseline
1,514,2,1,1,3,1,720.0,59.0,225.0,100.0,0.75,2.931591329751752,size_high
1,515,1,0,1,2,0,875.0,116.0,75.0,100.0,0.75,2.931591329751752,size_low
1,516,8,0,0,3,1,464.0,83.0,150.0,100.0,0.75,5.863182659503503,tilt_high
1,517,2,0,0,2,1,525.0,189.0,225.0,100.0,0.75,2.931591329751752,size_high
1,518,6,0,1,2,0,1028.0,76.0,150.0,100.0,0.1,2.931591329751752,noise_low
1,519,1,1,1,1,1,767.0,63.0,75.0,100.0,0.75,2.931591329751752,size_low
1,520,4,0,0,3,1,240.0,62.0,150.0,500.0,0.75,2.931591329751752,dur_high
1,521,5,1,1,1,1,569.0,49.0,150.0,100.0,0.9,2.931591329751752,noise_high
1,522,1,1,1,1,1,843.0,70.0,75.0,100.0,0.75,2.931591329751752,size_low
1,523,9,1,1,4,1,741.0,121.0,150.0,100.0,0.75,2.931591329751752,baseline
1,524,1,0,1,2,0,854.0,124.0,75.0,100.0,0.75,2.931591329751752,size_low
1,525,2,1,1,1,1,1158.0,179.0,225.0,100.0,0.75,2.931591329751752,size_high
1,526,2,0,0,3,1,1156.0,75.0,225.0,100.0,0.75,2.931591329751752,size_high
1,527,9,0,0,4,1,593.0,230.0,150.0,100.0,0.75,2.931591329751752,baseline
1,528,9,1,1,2,1,513.0,78.0,150.0,100.0,0.75,2.931591329751752,baseline
1,529,7,0,1,2,0,878.0,27.0,150.0,100.0,0.75,1.4657956648758756,tilt_low
1,530,2,1,1,2,1,739.0,67.0,225.0,100.0,0.75,2.931591329751752,size_high
1,531,1,1,1,1,1,789.0,114.0,75.0,100.0,0.75,2.931591329751752,size_low
1,532,4,1,1,2,1,582.0,174.0,150.0,500.0,0.75,2.931591329751752,dur_high
1,533,3,0,0,4,1,471.0,139.0,150.0,33.0,0.75,2.931591329751752,dur_low
1,534,1,0,0,2,1,652.0,67.0,75.0,100.0,0.75,2.931591329751752,size_low
1,535,5,0,1,1,0,509.0,51.0,150.0,100.0,0.9,2.931591329751752,noise_high
1,536,9,0,0,1,1,697.0,66.0,150.0,100.0,0.75,2.931591329751752,baseline
1,537,8,0,0,2,1,702.0,348.0,150.0,100.0,0.75,5.863182659503503,tilt_high
1,538,9,0,0,3,1,463.0,100.0,150.0,100.0,0.75,2.931591329751752,baseline
1,539,6,0,0,2,1,542.0,107.0,150.0,100.0,0.1,2.931591329751752,noise_low
1,540,2,0,0,3,1,752.0,75.0,225.0,100.0,0.75,2.931591329751752,size_high
1,541,6,0,0,2,1,690.0,421.0,150.0,100.0,0.1,2.931591329751752,noise_low
1,542,4,1,1,3,1,683.0,107.0,150.0,500.0,0.75,2.931591329751752,dur_high
1,543,8,1,1,3,1,642.0,51.0,150.0,100.0,0.75,5.863182659503503,tilt_high
1,544,9,1,1,3,1,612.0,29.0,150.0,100.0,0.75,2.931591329751752,baseline
1,545,4,1,1,3,1,620.0,35.0,150.0,500.0,0.75,2.931591329751752,dur_high
1,546,2,1,1,3,1,648.0,37.0,225.0,100.0,0.75,2.931591329751752,size_high
1,547,9,1,1,4,1,1167.0,100.0,150.0,100.0,0.75,2.931591329751752,baseline
1,548,8,1,1,2,1,485.0,251.0,150.0,100.0,0.75,5.863182659503503,tilt_high
1,549,3,0,0,3,1,538.0,71.0,150.0,33.0,0.75,2.931591329751752,dur_low
1,550,7,0,0,2,1,377.0,272.0,150.0,100.0,0.75,1.4657956648758756,tilt_low
1,551,9,0,0,4,1,593.0,130.0,150.0,100.0,0.75,2.931591329751752,baseline
1,552,1,1,1,1,1,593.0,116.0,75.0,100.0,0.75,2.931591329751752,size_low
1,553,4,1,1,3,1,420.0,17.0,150.0,500.0,0.75,2.931591329751752,dur_high
1,554,9,1,1,3,1,727.0,27.0,150.0,100.0,0.75,2.931591329751752,baseline
1,555,5,0,1,1,0,730.0,56.0,150.0,100.0,0.9,2.931591329751752,noise_high
1,556,4,0,0,3,1,214.0,95.0,150.0,500.0,0.75,2.931591329751752,dur_high
1,557,2,1,1,2,1,488.0,159.0,225.0,100.0,0.75,2.931591329751752,size_high
1,558,9,1,1,3,1,657.0,205.0,150.0,100.0,0.75,2.931591329751752,baseline
1,559,5,0,1,1,0,541.0,51.0,150.0,100.0,0.9,2.931591329751752,noise_high
1,560,3,0,0,3,1,566.0,83.0,150.0,33.0,0.75,2.931591329751752,dur_low
1,561,2,1,1,2,1,595.0,143.0,225.0,100.0,0.75,2.931591329751752,size_high
1,562,6,0,0,3,1,380.0,51.0,150.0,100.0,0.1,2.931591329751752,noise_low
1,563,6,1,1,2,1,549.0,83.0,150.0,100.0,0.1,2.931591329751752,noise_low
1,564,1,0,1,1,0,945.0,140.0,75.0,100.0,0.75,2.931591329751752,size_low
1,565,4,0,0,3,1,463.0,76.0,150.0,500.0,0.75,2.931591329751752,dur_high
1,566,4,0,0,3,1,316.0,68.0,150.0,500.0,0.75,2.931591329751752,dur_high
1,567,2,0,0,3,1,562.0,140.0,225.0,100.0,0.75,2.931591329751752,size_high
1,568,5,0,1,1,0,550.0,556.0,150.0,100.0,0.9,2.931591329751752,noise_high
1,569,7,0,0,3,1,646.0,109.0,150.0,100.0,0.75,1.4657956648758756,tilt_low
1,570,9,1,1,2,1,486.0,63.0,150.0,100.0,0.75,2.931591329751752,baseline
1,571,9,0,0,2,1,488.0,87.0,150.0,100.0,0.75,2.931591329751752,baseline
1,572,9,0,1,3,0,568.0,32.0,150.0,100.0,0.75,2.931591329751752,baseline
1,573,8,0,0,3,1,497.0,52.0,150.0,100.0,0.75,5.863182659503503,tilt_high
1,574,8,1,1,4,1,499.0,203.0,150.0,100.0,0.75,5.863182659503503,tilt_high
1,575,9,0,0,3,1,503.0,51.0,150.0,100.0,0.75,2.931591329751752,baseline
1,576,8,0,0,3,1,415.0,65.0,150.0,100.0,0.75,5.863182659503503,tilt_high
1,577,2,0,0,3,1,461.0,70.0,225.0,100.0,0.75,2.931591329751752,size_high
1,578,7,0,0,3,1,487.0,32.0,150.0,100.0,0.75,1.4657956648758756,tilt_low
1,579,4,0,0,4,1,123.0,135.0,150.0,500.0,0.75,2.931591329751752,dur_high
1,580,3,1,1,4,1,460.0,299.0,150.0,33.0,0.75,2.931591329751752,dur_low
1,581,7,1,1,3,1,431.0,151.0,150.0,100.0,0.75,1.4657956648758756,tilt_low
1,582,9,0,0,3,1,411.0,67.0,150.0,100.0,0.75,2.931591329751752,baseline
1,583,3,0,0,3,1,795.0,68.0,150.0,33.0,0.75,2.931591329751752,dur_low
1,584,2,0,1,3,0,753.0,204.0,225.0,100.0,0.75,2.931591329751752,size_high
1,585,2,1,1,3,1,436.0,76.0,225.0,100.0,0.75,2.931591329751752,size_high
1,586,7,1,0,3,0,422.0,90.0,150.0,100.0,0.75,1.4657956648758756,tilt_low
1,587,1,0,0,3,1,498.0,82.0,75.0,100.0,0.75,2.931591329751752,size_low
1,588,9,1,1,3,1,596.0,84.0,150.0,100.0,0.75,2.931591329751752,baseline
1,589,5,1,1,1,1,565.0,34.0,150.0,100.0,0.9,2.931591329751752,noise_high
1,590,7,1,1,1,1,575.0,77.0,150.0,100.0,0.75,1.4657956648758756,tilt_low
1,591,8,0,0,3,1,550.0,116.0,150.0,100.0,0.75,5.863182659503503,tilt_high
1,592,6,1,1,2,1,491.0,81.0,150.0,100.0,0.1,2.931591329751752,noise_low
1,593,4,0,0,3,1,608.0,203.0,150.0,500.0,0.75,2.931591329751752,dur_high
1,594,9,0,0,3,1,775.0,158.0,150.0,100.0,0.75,2.931591329751752,baseline
1,595,9,1,1,3,1,521.0,83.0,150.0,100.0,0.75,2.931591329751752,baseline
1,596,5,1,1,1,1,507.0,66.0,150.0,100.0,0.9,2.931591329751752,noise_high
1,597,5,0,1,1,0,562.0,108.0,150.0,100.0,0.9,2.931591329751752,noise_high
1,598,7,0,0,3,1,540.0,114.0,150.0,100.0,0.75,1.4657956648758756,tilt_low
1,599,5,1,0,1,0,515.0,69.0,150.0,100.0,0.9,2.931591329751752,noise_high
1,600,8,1,0,1,0,655.0,787.0,150.0,100.0,0.75,5.863182659503503,tilt_high
1,601,3,0,0,3,1,567.0,77.0,150.0,33.0,0.75,2.931591329751752,dur_low
1,602,7,0,0,3,1,363.0,67.0,150.0,100.0,0.75,1.4657956648758756,tilt_low
1,603,9,0,1,3,0,509.0,71.0,150.0,100.0,0.75,2.931591329751752,baseline
1,604,7,0,1,2,0,594.0,65.0,150.0,100.0,0.75,1.4657956648758756,tilt_low
1,605,6,1,1,1,1,618.0,69.0,150.0,100.0,0.1,2.931591329751752,noise_low
1,606,6,1,1,2,1,601.0,335.0,150.0,100.0,0.1,2.931591329751752,noise_low
1,607,5,1,1,1,1,548.0,99.0,150.0,100.0,0.9,2.931591329751752,noise_high
1,608,6,1,1,1,1,539.0,74.0,150.0,100.0,0.1,2.931591329751752,noise_low
1,609,2,1,1,3,1,666.0,131.0,225.0,100.0,0.75,2.931591329751752,size_high
1,610,9,1,1,3,1,559.0,57.0,150.0,100.0,0.75,2.931591329751752,baseline
1,611,5,0,1,1,0,509.0,66.0,150.0,100.0,0.9,2.931591329751752,noise_high
1,612,8,1,1,1,1,804.0,84.0,150.0,100.0,0.75,5.863182659503503,tilt_high
1,613,7,1,0,3,0,570.0,131.0,150.0,100.0,0.75,1.4657956648758756,tilt_low
1,614,5,1,1,1,1,399.0,59.0,150.0,100.0,0.9,2.931591329751752,noise_high
1,615,7,0,0,3,1,476.0,71.0,150.0,100.0,0.75,1.4657956648758756,tilt_low
1,616,4,0,0,3,1,64.0,1047.0,150.0,500.0,0.75,2.931591329751752,dur_high
1,617,5,0,0,3,1,492.0,122.0,150.0,100.0,0.9,2.931591329751752,noise_high
1,618,7,1,0,2,0,584.0,51.0,150.0,100.0,0.75,1.4657956648758756,tilt_low
1,619,9,1,0,3,0,510.0,92.0,150.0,100.0,0.75,2.931591329751752,baseline
1,620,9,0,0,3,1,502.0,69.0,150.0,100.0,0.75,2.931591329751752,baseline
1,621,8,1,0,3,0,979.0,141.0,150.0,100.0,0.75,5.863182659503503,tilt_high
1,622,7,1,0,3,0,537.0,99.0,150.0,100.0,0.75,1.4657956648758756,tilt_low
1,623,9,0,0,3,1,671.0,71.0,150.0,100.0,0.75,2.931591329751752,baseline
1,624,4,1,0,4,0,127.0,118.0,150.0,500.0,0.75,2.931591329751752,dur_high
1,625,1,1,0,2,0,832.0,260.0,75.0,100.0,0.75,2.931591329751752,size_low
1,626,9,0,0,3,1,588.0,42.0,150.0,100.0,0.75,2.931591329751752,baseline
1,627,5,0,1,1,0,458.0,75.0,150.0,100.0,0.9,2.931591329751752,noise_high
1,628,6,0,0,1,1,739.0,59.0,150.0,100.0,0.1,2.931591329751752,noise_low
1,629,8,1,1,3,1,683.0,57.0,150.0,100.0,0.75,5.863182659503503,tilt_high
1,630,1,1,1,3,1,523.0,16.0,75.0,100.0,0.75,2.931591329751752,size_low
1,631,9,0,0,1,1,641.0,92.0,150.0,100.0,0.75,2.931591329751752,baseline
1,632,6,1,1,2,1,723.0,78.0,150.0,100.0,0.1,2.931591329751752,noise_low
1,633,5,1,0,2,0,670.0,94.0,150.0,100.0,0.9,2.931591329751752,noise_high
1,634,7,1,0,1,0,558.0,76.0,150.0,100.0,0.75,1.4657956648758756,tilt_low
1,635,2,1,1,2,1,734.0,86.0,225.0,100.0,0.75,2.931591329751752,size_high
1,636,5,0,1,1,0,523.0,45.0,150.0,100.0,0.9,2.931591329751752,noise_high
1,637,2,0,0,3,1,594.0,92.0,225.0,100.0,0.75,2.931591329751752,size_high
1,638,8,1,1,2,1,655.0,227.0,150.0,100.0,0.75,5.863182659503503,tilt_high
1,639,1,0,1,2,0,694.0,74.0,75.0,100.0,0.75,2.931591329751752,size_low
1,640,3,1,1,2,1,881.0,182.0,150.0,33.0,0.75,2.931591329751752,dur_low
1,641,9,0,0,3,1,600.0,100.0,150.0,100.0,0.75,2.931591329751752,baseline
1,642,7,0,0,4,1,606.0,65.0,150.0,100.0,0.75,1.4657956648758756,tilt_low
1,643,1,1,0,2,0,756.0,44.0,75.0,100.0,0.75,2.931591329751752,size_low
1,644,3,0,0,3,1,755.0,40.0,150.0,33.0,0.75,2.931591329751752,dur_low
1,645,1,0,0,4,1,618.0,99.0,75.0,100.0,0.75,2.931591329751752,size_low
1,646,5,0,1,1,0,520.0,81.0,150.0,100.0,0.9,2.931591329751752,noise_high
1,647,9,0,0,4,1,507.0,92.0,150.0,100.0,0.75,2.931591329751752,baseline
1,648,5,1,1,1,1,538.0,108.0,150.0,100.0,0.9,2.931591329751752,noise_high
1,649,6,0,0,4,1,663.0,64.0,150.0,100.0,0.1,2.931591329751752,noise_low
1,650,4,0,0,3,1,499.0,195.0,150.0,500.0,0.75,2.931591329751752,dur_high
1,651,8,0,0,3,1,559.0,84.0,150.0,100.0,0.75,5.863182659503503,tilt_high
1,652,9,1,1,3,1,556.0,85.0,150.0,100.0,0.75,2.931591329751752,baseline
1,653,5,1,1,1,1,586.0,24.0,150.0,100.0,0.9,2.931591329751752,noise_high
1,654,6,0,1,1,0,750.0,108.0,150.0,100.0,0.1,2.931591329751752,noise_low
1,655,3,1,1,3,1,654.0,323.0,150.0,33.0,0.75,2.931591329751752,dur_low
1,656,1,1,1,2,1,607.0,155.0,75.0,100.0,0.75,2.931591329751752,size_low
1,657,9,0,0,2,1,708.0,83.0,150.0,100.0,0.75,2.931591329751752,baseline
1,658,9,1,1,3,1,593.0,92.0,150.0,100.0,0.75,2.931591329751752,baseline
1,659,9,1,0,3,0,477.0,84.0,150.0,100.0,0.75,2.931591329751752,baseline
1,660,3,0,1,3,0,933.0,91.0,150.0,33.0,0.75,2.931591329751752,dur_low
1,661,2,0,0,3,1,457.0,84.0,225.0,100.0,0.75,2.931591329751752,size_high
1,662,6,0,1,2,0,553.0,42.0,150.0,100.0,0.1,2.931591329751752,noise_low
1,663,5,0,1,1,0,558.0,62.0,150.0,100.0,0.9,2.931591329751752,noise_high
1,664,9,0,0,1,1,765.0,84.0,150.0,100.0,0.75,2.931591329751752,baseline
1,665,6,0,0,1,1,577.0,86.0,150.0,100.0,0.1,2.931591329751752,noise_low
1,666,9,0,0,3,1,532.0,106.0,150.0,100.0,0.75,2.931591329751752,baseline
1,667,4,1,1,3,1,219.0,61.0,150.0,500.0,0.75,2.931591329751752,dur_high
1,668,9,1,1,2,1,594.0,66.0,150.0,100.0,0.75,2.931591329751752,baseline
1,669,4,0,0,4,1,124.0,166.0,150.0,500.0,0.75,2.931591329751752,dur_high
1,670,4,0,1,2,0,276.0,73.0,150.0,500.0,0.75,2.931591329751752,dur_high
1,671,4,1,0,3,0,52.0,87.0,150.0,500.0,0.75,2.931591329751752,dur_high
1,672,6,0,0,4,1,351.0,185.0,150.0,100.0,0.1,2.931591329751752,noise_low
1,673,7,1,0,2,0,726.0,99.0,150.0,100.0,0.75,1.4657956648758756,tilt_low
1,674,1,0,0,3,1,476.0,138.0,75.0,100.0,0.75,2.931591329751752,size_low
1,675,8,0,0,4,1,417.0,124.0,150.0,100.0,0.75,5.863182659503503,tilt_high
1,676,6,1,0,1,0,485.0,160.0,150.0,100.0,0.1,2.931591329751752,noise_low
1,677,9,1,0,1,0,630.0,71.0,150.0,100.0,0.75,2.931591329751752,baseline
1,678,7,1,0,2,0,618.0,68.0,150.0,100.0,0.75,1.4657956648758756,tilt_low
1,679,9,1,0,3,0,641.0,74.0,150.0,100.0,0.75,2.931591329751752,baseline
1,680,4,0,0,4,1,214.0,150.0,150.0,500.0,0.75,2.931591329751752,dur_high
1,681,7,1,1,4,1,451.0,130.0,150.0,100.0,0.75,1.4657956648758756,tilt_low
1,682,7,0,0,3,1,460.0,332.0,150.0,100.0,0.75,1.4657956648758756,tilt_low
1,683,5,0,1,1,0,613.0,116.0,150.0,100.0,0.9,2.931591329751752,noise_high
1,684,5,1,1,1,1,784.0,100.0,150.0,100.0,0.9,2.931591329751752,noise_high
1,685,5,1,1,1,1,576.0,124.0,150.0,100.0,0.9,2.931591329751752,noise_high
1,686,8,0,0,3,1,550.0,76.0,150.0,100.0,0.75,5.863182659503503,tilt_high
1,687,5,1,1,2,1,1301.0,147.0,150.0,100.0,0.9,2.931591329751752,noise_high
1,688,4,0,0,3,1,112.0,107.0,150.0,500.0,0.75,2.931591329751752,dur_high
1,689,3,1,1,2,1,1185.0,140.0,150.0,33.0,0.75,2.931591329751752,dur_low
1,690,6,1,1,2,1,976.0,197.0,150.0,100.0,0.1,2.931591329751752,noise_low
1,691,5,0,1,1,0,579.0,124.0,150.0,100.0,0.9,2.931591329751752,noise_high
1,692,9,0,0,4,1,347.0,140.0,150.0,100.0,0.75,2.931591329751752,baseline
1,693,2,1,1,3,1,330.0,301.0,225.0,100.0,0.75,2.931591329751752,size_high
1,694,7,1,0,2,0,421.0,395.0,150.0,100.0,0.75,1.4657956648758756,tilt_low
1,695,2,1,1,1,1,768.0,71.0,225.0,100.0,0.75,2.931591329751752,size_high
1,696,1,0,0,2,1,617.0,324.0,75.0,100.0,0.75,2.931591329751752,size_low
1,697,2,1,0,2,0,711.0,68.0,225.0,100.0,0.75,2.931591329751752,size_high
1,698,3,1,1,1,1,787.0,58.0,150.0,33.0,0.75,2.931591329751752,dur_low
1,699,7,0,0,2,1,539.0,131.0,150.0,100.0,0.75,1.4657956648758756,tilt_low
1,700,2,0,0,3,1,430.0,331.0,225.0,100.0,0.75,2.931591329751752,size_high
1,701,2,1,0,1,0,643.0,74.0,225.0,100.0,0.75,2.931591329751752,size_high
1,702,3,1,0,2,0,937.0,106.0,150.0,33.0,0.75,2.931591329751752,dur_low
1,703,6,0,1,2,0,871.0,68.0,150.0,100.0,0.1,2.931591329751752,noise_low
1,704,9,1,1,1,1,830.0,77.0,150.0,100.0,0.75,2.931591329751752,baseline
1,705,3,0,0,1,1,1331.0,468.0,150.0,33.0,0.75,2.931591329751752,dur_low
1,706,3,1,0,2,0,711.0,191.0,150.0,33.0,0.75,2.931591329751752,dur_low
1,707,2,0,0,2,1,671.0,67.0,225.0,100.0,0.75,2.931591329751752,size_high
1,708,4,1,1,3,1,267.0,84.0,150.0,500.0,0.75,2.931591329751752,dur_high
1,709,9,1,1,3,1,567.0,86.0,150.0,100.0,0.75,2.931591329751752,baseline
1,710,5,0,1,1,0,628.0,71.0,150.0,100.0,0.9,2.931591329751752,noise_high
1,711,9,1,1,1,1,1111.0,139.0,150.0,100.0,0.75,2.931591329751752,baseline
1,712,7,0,0,2,1,678.0,66.0,150.0,100.0,0.75,1.4657956648758756,tilt_low
1,713,1,1,0,2,0,460.0,91.0,75.0,100.0,0.75,2.931591329751752,size_low
1,714,3,1,0,2,0,714.0,278.0,150.0,33.0,0.75,2.931591329751752,dur_low
1,715,3,0,0,3,1,593.0,90.0,150.0,33.0,0.75,2.931591329751752,dur_low
1,716,4,1,0,2,0,337.0,108.0,150.0,500.0,0.75,2.931591329751752,dur_high
1,717,5,1,1,1,1,752.0,40.0,150.0,100.0,0.9,2.931591329751752,noise_high
1,718,4,1,1,2,1,661.0,82.0,150.0,500.0,0.75,2.931591329751752,dur_high
1,719,9,1,0,3,0,468.0,89.0,150.0,100.0,0.75,2.931591329751752,baseline
1,720,6,1,0,2,0,764.0,89.0,150.0,100.0,0.1,2.931591329751752,noise_low
2,1,8,1,0,2,0,1260.0,1129.0,150.0,100.0,0.75,4.331629920194779,tilt_high
2,2,2,1,0,3,0,640.0,1224.0,225.0,100.0,0.75,2.1658149600973897,size_high
2,3,5,0,1,1,0,1384.0,617.0,150.0,100.0,0.9,2.1658149600973897,noise_high
2,4,9,0,0,4,1,617.0,458.0,150.0,100.0,0.75,2.1658149600973897,baseline
2,5,9,1,1,3,1,549.0,882.0,150.0,100.0,0.75,2.1658149600973897,baseline
2,6,2,0,0,4,1,429.0,602.0,225.0,100.0,0.75,2.1658149600973897,size_high
2,7,8,1,1,2,1,855.0,242.0,150.0,100.0,0.75,4.331629920194779,tilt_high
2,8,1,1,0,1,0,1467.0,1021.0,75.0,100.0,0.75,2.1658149600973897,size_low
2,9,7,0,0,3,1,484.0,559.0,150.0,100.0,0.75,1.0829074800486949,tilt_low
2,10,9,1,1,2,1,958.0,300.0,150.0,100.0,0.75,2.1658149600973897,baseline
2,11,1,1,0,2,0,1173.0,384.0,75.0,100.0,0.75,2.1658149600973897,size_low
2,12,2,1,1,1,1,1368.0,866.0,225.0,100.0,0.75,2.1658149600973897,size_high
2,13,3,0,0,3,1,806.0,447.0,150.0,33.0,0.75,2.1658149600973897,dur_low
2,14,2,0,0,2,1,1446.0,1056.0,225.0,100.0,0.75,2.1658149600973897,size_high
2,15,8,1,1,4,1,586.0,362.0,150.0,100.0,0.75,4.331629920194779,tilt_high
2,16,9,1,0,2,0,1424.0,401.0,150.0,100.0,0.75,2.1658149600973897,baseline
2,17,9,1,1,2,1,627.0,397.0,150.0,100.0,0.75,2.1658149600973897,baseline
2,18,3,1,0,2,0,655.0,923.0,150.0,33.0,0.75,2.1658149600973897,dur_low
2,19,7,0,0,3,1,519.0,532.0,150.0,100.0,0.75,1.0829074800486949,tilt_low
2,20,9,1,0,3,0,1040.0,463.0,150.0,100.0,0.75,2.1658149600973897,baseline
2,21,9,1,0,4,0,992.0,287.0,150.0,100.0,0.75,2.1658149600973897,baseline
2,22,6,1,0,1,0,2066.0,797.0,150.0,100.0,0.1,2.1658149600973897,noise_low
2,23,7,0,0,2,1,960.0,1110.0,150.0,100.0,0.75,1.0829074800486949,tilt_low
2,24,6,1,1,2,1,2120.0,390.0,150.0,100.0,0.1,2.1658149600973897,noise_low
2,25,3,0,0,2,1,805.0,419.0,150.0,33.0,0.75,2.1658149600973897,dur_low
2,26,8,1,1,3,1,657.0,529.0,150.0,100.0,0.75,4.331629920194779,tilt_high
2,27,2,1,1,2,1,772.0,986.0,225.0,100.0,0.75,2.1658149600973897,size_high
2,28,1,1,1,2,1,937.0,560.0,75.0,100.0,0.75,2.1658149600973897,size_low
2,29,9,0,0,4,1,553.0,646.0,150.0,100.0,0.75,2.1658149600973897,baseline
2,30,5,0,1,1,0,1927.0,253.0,150.0,100.0,0.9,2.1658149600973897,noise_high
2,31,9,1,1,2,1,819.0,650.0,150.0,100.0,0.75,2.1658149600973897,baseline
2,32,9,0,0,3,1,441.0,433.0,150.0,100.0,0.75,2.1658149600973897,baseline
2,33,4,0,0,4,1,538.0,728.0,150.0,500.0,0.75,2.1658149600973897,dur_high
2,34,4,0,0,3,1,2033.0,482.0,150.0,500.0,0.75,2.1658149600973897,dur_high
2,35,6,1,1,2,1,1638.0,234.0,150.0,100.0,0.1,2.1658149600973897,noise_low
2,36,7,1,1,2,1,1229.0,804.0,150.0,100.0,0.75,1.0829074800486949,tilt_low
2,37,5,0,1,1,0,563.0,242.0,150.0,100.0,0.9,2.1658149600973897,noise_high
2,38,7,0,1,3,0,915.0,628.0,150.0,100.0,0.75,1.0829074800486949,tilt_low
2,39,6,0,0,4,1,408.0,478.0,150.0,100.0,0.1,2.1658149600973897,noise_low
2,40,9,0,0,3,1,1662.0,253.0,150.0,100.0,0.75,2.1658149600973897,baseline
2,41,9,0,0,4,1,532.0,239.0,150.0,100.0,0.75,2.1658149600973897,baseline
2,42,3,1,1,2,1,872.0,255.0,150.0,33.0,0.75,2.1658149600973897,dur_low
2,43,7,1,1,2,1,759.0,289.0,150.0,100.0,0.75,1.0829074800486949,tilt_low
2,44,8,0,0,4,1,436.0,351.0,150.0,100.0,0.75,4.331629920194779,tilt_high
2,45,6,0,0,3,1,3775.0,566.0,150.0,100.0,0.1,2.1658149600973897,noise_low
2,46,9,0,0,3,1,899.0,1344.0,150.0,100.0,0.75,2.1658149600973897,baseline
2,47,3,0,0,4,1,669.0,305.0,150.0,33.0,0.75,2.1658149600973897,dur_low
2,48,9,0,0,4,1,654.0,658.0,150.0,100.0,0.75,2.1658149600973897,baseline
2,49,7,1,1,2,1,727.0,531.0,150.0,100.0,0.75,1.0829074800486949,tilt_low
2,50,1,0,0,3,1,652.0,590.0,75.0,100.0,0.75,2.1658149600973897,size_low
2,51,5,0,0,1,1,1618.0,588.0,150.0,100.0,0.9,2.1658149600973897,noise_high
2,52,3,0,0,3,1,956.0,493.0,150.0,33.0,0.75,2.1658149600973897,dur_low
2,53,7,0,0,2,1,1658.0,253.0,150.0,100.0,0.75,1.0829074800486949,tilt_low
2,54,4,0,0,3,1,1503.0,560.0,150.0,500.0,0.75,2.1658149600973897,dur_high
2,55,9,0,0,3,1,883.0,615.0,150.0,100.0,0.75,2.1658149600973897,baseline
2,56,1,0,1,2,0,924.0,529.0,75.0,100.0,0.75,2.1658149600973897,size_low
2,57,9,0,1,4,0,684.0,532.0,150.0,100.0,0.75,2.1658149600973897,baseline
2,58,8,0,0,4,1,568.0,623.0,150.0,100.0,0.75,4.331629920194779,tilt_high
2,59,3,1,1,3,1,810.0,564.0,150.0,33.0,0.75,2.1658149600973897,dur_low
2,60,2,1,1,4,1,715.0,315.0,225.0,100.0,0.75,2.1658149600973897,size_high
2,61,6,0,0,3,1,570.0,1313.0,150.0,100.0,0.1,2.1658149600973897,noise_low
2,62,2,1,1,4,1,942.0,533.0,225.0,100.0,0.75,2.1658149600973897,size_high
2,63,3,1,1,2,1,1222.0,1642.0,150.0,33.0,0.75,2.1658149600973897,dur_low
2,64,9,1,1,3,1,747.0,737.0,150.0,100.0,0.75,2.1658149600973897,baseline
2,65,4,1,1,4,1,543.0,732.0,150.0,500.0,0.75,2.1658149600973897,dur_high
2,66,6,1,1,1,1,1262.0,227.0,150.0,100.0,0.1,2.1658149600973897,noise_low
2,67,5,0,0,2,1,1032.0,1494.0,150.0,100.0,0.9,2.1658149600973897,noise_high
2,68,7,0,0,2,1,664.0,1126.0,150.0,100.0,0.75,1.0829074800486949,tilt_low
2,69,8,1,1,3,1,876.0,1186.0,150.0,100.0,0.75,4.331629920194779,tilt_high
2,70,9,1,1,2,1,944.0,527.0,150.0,100.0,0.75,2.1658149600973897,baseline
2,71,8,0,0,4,1,527.0,345.0,150.0,100.0,0.75,4.331629920194779,tilt_high
2,72,9,1,1,2,1,662.0,689.0,150.0,100.0,0.75,2.1658149600973897,baseline
2,73,9,1,1,2,1,596.0,387.0,150.0,100.0,0.75,2.1658149600973897,baseline
2,74,9,1,1,3,1,829.0,716.0,150.0,100.0,0.75,2.1658149600973897,baseline
2,75,5,1,1,1,1,720.0,806.0,150.0,100.0,0.9,2.1658149600973897,noise_high
2,76,5,0,1,1,0,868.0,706.0,150.0,100.0,0.9,2.1658149600973897,noise_high
2,77,7,0,1,3,0,1036.0,512.0,150.0,100.0,0.75,1.0829074800486949,tilt_low
2,78,9,0,0,2,1,354.0,713.0,150.0,100.0,0.75,2.1658149600973897,baseline
2,79,9,0,0,4,1,324.0,311.0,150.0,100.0,0.75,2.1658149600973897,baseline
2,80,4,1,1,2,1,710.0,410.0,150.0,500.0,0.75,2.1658149600973897,dur_high
2,81,9,1,1,2,1,461.0,301.0,150.0,100.0,0.75,2.1658149600973897,baseline
2,82,5,1,1,2,1,701.0,808.0,150.0,100.0,0.9,2.1658149600973897,noise_high
2,83,2,1,0,3,0,490.0,402.0,225.0,100.0,0.75,2.1658149600973897,size_high
2,84,6,0,0,4,1,383.0,277.0,150.0,100.0,0.1,2.1658149600973897,noise_low
2,85,7,1,0,2,0,691.0,562.0,150.0,100.0,0.75,1.0829074800486949,tilt_low
2,86,1,1,0,3,0,410.0,345.0,75.0,100.0,0.75,2.1658149600973897,size_low
2,87,8,1,1,2,1,539.0,450.0,150.0,100.0,0.75,4.331629920194779,tilt_high
2,88,5,0,1,1,0,521.0,784.0,150.0,100.0,0.9,2.1658149600973897,noise_high
2,89,9,1,1,2,1,882.0,433.0,150.0,100.0,0.75,2.1658149600973897,baseline
2,90,4,0,0,4,1,301.0,519.0,150.0,500.0,0.75,2.1658149600973897,dur_high
2,91,7,0,0,3,1,526.0,401.0,150.0,100.0,0.75,1.0829074800486949,tilt_low
2,92,5,0,1,1,0,606.0,449.0,150.0,100.0,0.9,2.1658149600973897,noise_high
2,93,6,0,0,3,1,435.0,379.0,150.0,100.0,0.1,2.1658149600973897,noise_low
2,94,4,1,1,2,1,787.0,437.0,150.0,500.0,0.75,2.1658149600973897,dur_high
2,95,9,1,1,2,1,607.0,471.0,150.0,100.0,0.75,2.1658149600973897,baseline
2,96,3,0,0,4,1,505.0,544.0,150.0,33.0,0.75,2.1658149600973897,dur_low
2,97,5,1,1,2,1,676.0,1121.0,150.0,100.0,0.9,2.1658149600973897,noise_high
2,98,9,0,0,4,1,440.0,595.0,150.0,100.0,0.75,2.1658149600973897,baseline
2,99,8,0,0,4,1,488.0,939.0,150.0,100.0,0.75,4.331629920194779,tilt_high
2,100,9,1,1,2,1,652.0,739.0,150.0,100.0,0.75,2.1658149600973897,baseline
2,101,3,0,0,3,1,1340.0,1357.0,150.0,33.0,0.75,2.1658149600973897,dur_low
2,102,6,0,0,2,1,566.0,420.0,150.0,100.0,0.1,2.1658149600973897,noise_low
2,103,3,1,1,2,1,2622.0,716.0,150.0,33.0,0.75,2.1658149600973897,dur_low
2,104,9,1,0,3,0,850.0,613.0,150.0,100.0,0.75,2.1658149600973897,baseline
2,105,6,1,1,4,1,683.0,1087.0,150.0,100.0,0.1,2.1658149600973897,noise_low
2,106,9,0,0,4,1,572.0,386.0,150.0,100.0,0.75,2.1658149600973897,baseline
2,107,6,1,1,2,1,537.0,745.0,150.0,100.0,0.1,2.1658149600973897,noise_low
2,108,1,0,0,1,1,1868.0,1632.0,75.0,100.0,0.75,2.1658149600973897,size_low
2,109,6,1,1,2,1,1523.0,585.0,150.0,100.0,0.1,2.1658149600973897,noise_low
2,110,6,1,0,2,0,1760.0,614.0,150.0,100.0,0.1,2.1658149600973897,noise_low
2,111,2,1,1,4,1,611.0,439.0,225.0,100.0,0.75,2.1658149600973897,size_high
2,112,3,1,0,2,0,1649.0,178.0,150.0,33.0,0.75,2.1658149600973897,dur_low
2,113,6,1,0,2,0,834.0,320.0,150.0,100.0,0.1,2.1658149600973897,noise_low
2,114,6,1,1,1,1,527.0,760.0,150.0,100.0,0.1,2.1658149600973897,noise_low
2,115,9,0,0,3,1,400.0,439.0,150.0,100.0,0.75,2.1658149600973897,baseline
2,116,5,0,1,2,0,609.0,405.0,150.0,100.0,0.9,2.1658149600973897,noise_high
2,117,3,1,0,2,0,555.0,407.0,150.0,33.0,0.75,2.1658149600973897,dur_low
2,118,9,0,0,3,1,384.0,405.0,150.0,100.0,0.75,2.1658149600973897,baseline
2,119,2,1,0,2,0,664.0,496.0,225.0,100.0,0.75,2.1658149600973897,size_high
2,120,9,0,0,4,1,567.0,505.0,150.0,100.0,0.75,2.1658149600973897,baseline
2,121,2,1,1,2,1,1908.0,789.0,225.0,100.0,0.75,2.1658149600973897,size_high
2,122,2,0,0,3,1,1175.0,470.0,225.0,100.0,0.75,2.1658149600973897,size_high
2,123,3,1,0,3,0,1963.0,717.0,150.0,33.0,0.75,2.1658149600973897,dur_low
2,124,9,0,0,4,1,650.0,446.0,150.0,100.0,0.75,2.1658149600973897,baseline
2,125,8,1,1,2,1,967.0,334.0,150.0,100.0,0.75,4.331629920194779,tilt_high
2,126,1,1,1,2,1,609.0,406.0,75.0,100.0,0.75,2.1658149600973897,size_low
2,127,9,1,0,3,0,1089.0,274.0,150.0,100.0,0.75,2.1658149600973897,baseline
2,128,3,0,0,4,1,558.0,345.0,150.0,33.0,0.75,2.1658149600973897,dur_low
2,129,7,1,0,2,0,1268.0,372.0,150.0,100.0,0.75,1.0829074800486949,tilt_low
2,130,1,1,1,1,1,667.0,1355.0,75.0,100.0,0.75,2.1658149600973897,size_low
2,131,1,1,0,3,0,713.0,850.0,75.0,100.0,0.75,2.1658149600973897,size_low
2,132,9,0,0,4,1,468.0,450.0,150.0,100.0,0.75,2.1658149600973897,baseline
2,133,1,0,1,2,0,1825.0,1919.0,75.0,100.0,0.75,2.1658149600973897,size_low
2,134,8,0,0,4,1,520.0,256.0,150.0,100.0,0.75,4.331629920194779,tilt_high
2,135,9,1,0,2,0,1808.0,423.0,150.0,100.0,0.75,2.1658149600973897,baseline
2,136,7,1,0,2,0,1748.0,729.0,150.0,100.0,0.75,1.0829074800486949,tilt_low
2,137,8,1,1,3,1,724.0,1164.0,150.0,100.0,0.75,4.331629920194779,tilt_high
2,138,8,0,0,4,1,444.0,232.0,150.0,100.0,0.75,4.331629920194779,tilt_high
2,139,9,1,1,3,1,630.0,577.0,150.0,100.0,0.75,2.1658149600973897,baseline
2,140,9,0,0,3,1,601.0,462.0,150.0,100.0,0.75,2.1658149600973897,baseline
2,141,8,0,0,4,1,452.0,212.0,150.0,100.0,0.75,4.331629920194779,tilt_high
2,142,2,1,1,4,1,615.0,416.0,225.0,100.0,0.75,2.1658149600973897,size_high
2,143,3,1,1,1,1,1216.0,312.0,150.0,33.0,0.75,2.1658149600973897,dur_low
2,144,5,1,1,2,1,910.0,524.0,150.0,100.0,0.9,2.1658149600973897,noise_high
2,145,9,1,0,2,0,1168.0,737.0,150.0,100.0,0.75,2.1658149600973897,baseline
2,146,3,1,1,2,1,1219.0,590.0,150.0,33.0,0.75,2.1658149600973897,dur_low
2,147,7,1,0,3,0,1643.0,613.0,150.0,100.0,0.75,1.0829074800486949,tilt_low
2,148,7,1,0,4,0,697.0,409.0,150.0,100.0,0.75,1.0829074800486949,tilt_low
2,149,4,0,0,2,1,1297.0,498.0,150.0,500.0,0.75,2.1658149600973897,dur_high
2,150,6,1,0,1,0,529.0,556.0,150.0,100.0,0.1,2.1658149600973897,noise_low
2,151,6,0,0,4,1,615.0,202.0,150.0,100.0,0.1,2.1658149600973897,noise_low
2,152,4,0,1,3,0,347.0,731.0,150.0,500.0,0.75,2.1658149600973897,dur_high
2,153,1,0,1,2,0,658.0,600.0,75.0,100.0,0.75,2.1658149600973897,size_low
2,154,5,0,0,1,1,1702.0,914.0,150.0,100.0,0.9,2.1658149600973897,noise_high
2,155,9,1,0,2,0,966.0,181.0,150.0,100.0,0.75,2.1658149600973897,baseline
2,156,9,0,0,3,1,571.0,194.0,150.0,100.0,0.75,2.1658149600973897,baseline
2,157,9,0,0,2,1,1168.0,379.0,150.0,100.0,0.75,2.1658149600973897,baseline
2,158,2,0,0,1,1,715.0,1212.0,225.0,100.0,0.75,2.1658149600973897,size_high
2,159,5,0,0,1,1,2861.0,164.0,150.0,100.0,0.9,2.1658149600973897,noise_high
2,160,6,0,0,3,1,1044.0,291.0,150.0,100.0,0.1,2.1658149600973897,noise_low
2,161,6,0,0,2,1,936.0,458.0,150.0,100.0,0.1,2.1658149600973897,noise_low
2,162,1,0,0,1,1,2827.0,279.0,75.0,100.0,0.75,2.1658149600973897,size_low
2,163,6,1,1,4,1,492.0,495.0,150.0,100.0,0.1,2.1658149600973897,noise_low
2,164,3,0,0,3,1,941.0,604.0,150.0,33.0,0.75,2.1658149600973897,dur_low
2,165,9,0,0,2,1,445.0,455.0,150.0,100.0,0.75,2.1658149600973897,baseline
2,166,7,0,0,2,1,703.0,1217.0,150.0,100.0,0.75,1.0829074800486949,tilt_low
2,167,3,0,0,4,1,544.0,335.0,150.0,33.0,0.75,2.1658149600973897,dur_low
2,168,9,0,0,3,1,522.0,571.0,150.0,100.0,0.75,2.1658149600973897,baseline
2,169,5,1,0,2,0,896.0,1050.0,150.0,100.0,0.9,2.1658149600973897,noise_high
2,170,1,1,1,1,1,2608.0,1046.0,75.0,100.0,0.75,2.1658149600973897,size_low
2,171,9,0,0,3,1,344.0,316.0,150.0,100.0,0.75,2.1658149600973897,baseline
2,172,6,0,0,4,1,533.0,372.0,150.0,100.0,0.1,2.1658149600973897,noise_low
2,173,2,1,1,2,1,1167.0,512.0,225.0,100.0,0.75,2.1658149600973897,size_high
2,174,7,1,1,2,1,1314.0,544.0,150.0,100.0,0.75,1.0829074800486949,tilt_low
2,175,9,0,0,3,1,357.0,479.0,150.0,100.0,0.75,2.1658149600973897,baseline
2,176,5,1,0,1,0,537.0,820.0,150.0,100.0,0.9,2.1658149600973897,noise_high
2,177,9,1,1,4,1,633.0,299.0,150.0,100.0,0.75,2.1658149600973897,baseline
2,178,8,0,0,3,1,378.0,530.0,150.0,100.0,0.75,4.331629920194779,tilt_high
2,179,9,0,0,2,1,899.0,1010.0,150.0,100.0,0.75,2.1658149600973897,baseline
2,180,8,1,1,4,1,1348.0,379.0,150.0,100.0,0.75,4.331629920194779,tilt_high
2,181,5,1,1,2,1,743.0,446.0,150.0,100.0,0.9,2.1658149600973897,noise_high
2,182,2,0,0,3,1,472.0,348.0,225.0,100.0,0.75,2.1658149600973897,size_high
2,183,4,0,0,3,1,635.0,1233.0,150.0,500.0,0.75,2.1658149600973897,dur_high
2,184,2,1,1,1,1,1106.0,528.0,225.0,100.0,0.75,2.1658149600973897,size_high
2,185,8,0,0,4,1,258.0,397.0,150.0,100.0,0.75,4.331629920194779,tilt_high
2,186,7,0,1,2,0,924.0,549.0,150.0,100.0,0.75,1.0829074800486949,tilt_low
2,187,3,1,1,2,1,766.0,338.0,150.0,33.0,0.75,2.1658149600973897,dur_low
2,188,9,1,1,1,1,659.0,617.0,150.0,100.0,0.75,2.1658149600973897,baseline
2,189,2,1,0,2,0,1046.0,450.0,225.0,100.0,0.75,2.1658149600973897,size_high
2,190,5,1,1,1,1,552.0,474.0,150.0,100.0,0.9,2.1658149600973897,noise_high
2,191,5,0,0,2,1,560.0,493.0,150.0,100.0,0.9,2.1658149600973897,noise_high
2,192,8,1,1,4,1,744.0,1278.0,150.0,100.0,0.75,4.331629920194779,tilt_high
2,193,9,0,0,4,1,661.0,332.0,150.0,100.0,0.75,2.1658149600973897,baseline
2,194,2,0,0,2,1,562.0,418.0,225.0,100.0,0.75,2.1658149600973897,size_high
2,195,8,0,0,3,1,374.0,655.0,150.0,100.0,0.75,4.331629920194779,tilt_high
2,196,8,0,0,4,1,341.0,384.0,150.0,100.0,0.75,4.331629920194779,tilt_high
2,197,1,0,0,4,1,354.0,493.0,75.0,100.0,0.75,2.1658149600973897,size_low
2,198,3,1,0,3,0,727.0,293.0,150.0,33.0,0.75,2.1658149600973897,dur_low
2,199,6,0,0,2,1,479.0,909.0,150.0,100.0,0.1,2.1658149600973897,noise_low
2,200,7,1,0,1,0,862.0,506.0,150.0,100.0,0.75,1.0829074800486949,tilt_low
2,201,8,1,0,2,0,856.0,1684.0,150.0,100.0,0.75,4.331629920194779,tilt_high
2,202,8,0,0,4,1,504.0,343.0,150.0,100.0,0.75,4.331629920194779,tilt_high
2,203,3,0,0,2,1,1093.0,562.0,150.0,33.0,0.75,2.1658149600973897,dur_low
2,204,9,0,1,3,0,677.0,1254.0,150.0,100.0,0.75,2.1658149600973897,baseline
2,205,6,1,1,3,1,618.0,602.0,150.0,100.0,0.1,2.1658149600973897,noise_low
2,206,9,0,1,1,0,605.0,712.0,150.0,100.0,0.75,2.1658149600973897,baseline
2,207,8,1,1,4,1,696.0,252.0,150.0,100.0,0.75,4.331629920194779,tilt_high
2,208,9,1,1,2,1,1442.0,243.0,150.0,100.0,0.75,2.1658149600973897,baseline
2,209,9,1,1,3,1,865.0,835.0,150.0,100.0,0.75,2.1658149600973897,baseline
2,210,9,0,0,3,1,609.0,741.0,150.0,100.0,0.75,2.1658149600973897,baseline
2,211,6,0,0,4,1,396.0,323.0,150.0,100.0,0.1,2.1658149600973897,noise_low
2,212,5,0,0,1,1,1462.0,453.0,150.0,100.0,0.9,2.1658149600973897,noise_high
2,213,1,1,1,3,1,782.0,610.0,75.0,100.0,0.75,2.1658149600973897,size_low
2,214,5,1,1,1,1,925.0,475.0,150.0,100.0,0.9,2.1658149600973897,noise_high
2,215,7,0,0,3,1,825.0,476.0,150.0,100.0,0.75,1.0829074800486949,tilt_low
2,216,5,0,0,1,1,1137.0,865.0,150.0,100.0,0.9,2.1658149600973897,noise_high
2,217,8,0,0,4,1,471.0,895.0,150.0,100.0,0.75,4.331629920194779,tilt_high
2,218,4,1,0,2,0,1253.0,424.0,150.0,500.0,0.75,2.1658149600973897,dur_high
2,219,3,1,1,3,1,1556.0,731.0,150.0,33.0,0.75,2.1658149600973897,dur_low
2,220,1,0,0,3,1,629.0,648.0,75.0,100.0,0.75,2.1658149600973897,size_low
2,221,9,1,0,2,0,669.0,563.0,150.0,100.0,0.75,2.1658149600973897,baseline
2,222,2,1,0,3,0,511.0,870.0,225.0,100.0,0.75,2.1658149600973897,size_high
2,223,7,1,0,4,0,400.0,308.0,150.0,100.0,0.75,1.0829074800486949,tilt_low
2,224,9,0,0,1,1,1082.0,383.0,150.0,100.0,0.75,2.1658149600973897,baseline
2,225,6,1,1,2,1,507.0,2364.0,150.0,100.0,0.1,2.1658149600973897,noise_low
2,226,4,0,0,4,1,298.0,346.0,150.0,500.0,0.75,2.1658149600973897,dur_high
2,227,6,0,0,2,1,452.0,312.0,150.0,100.0,0.1,2.1658149600973897,noise_low
2,228,7,0,0,3,1,370.0,383.0,150.0,100.0,0.75,1.0829074800486949,tilt_low
2,229,2,1,0,2,0,481.0,758.0,225.0,100.0,0.75,2.1658149600973897,size_high
2,230,8,0,0,4,1,529.0,893.0,150.0,100.0,0.75,4.331629920194779,tilt_high
2,231,4,0,0,3,1,1528.0,2033.0,150.0,500.0,0.75,2.1658149600973897,dur_high
2,232,1,0,0,1,1,570.0,1481.0,75.0,100.0,0.75,2.1658149600973897,size_low
2,233,9,1,1,4,1,848.0,599.0,150.0,100.0,0.75,2.1658149600973897,baseline
2,234,9,1,1,3,1,605.0,590.0,150.0,100.0,0.75,2.1658149600973897,baseline
2,235,6,1,1,4,1,513.0,536.0,150.0,100.0,0.1,2.1658149600973897,noise_low
2,236,3,0,1,1,0,1044.0,672.0,150.0,33.0,0.75,2.1658149600973897,dur_low
2,237,2,0,0,3,1,466.0,546.0,225.0,100.0,0.75,2.1658149600973897,size_high
2,238,8,1,1,2,1,971.0,416.0,150.0,100.0,0.75,4.331629920194779,tilt_high
2,239,4,0,0,3,1,518.0,798.0,150.0,500.0,0.75,2.1658149600973897,dur_high
2,240,1,0,0,2,1,605.0,470.0,75.0,100.0,0.75,2.1658149600973897,size_low
2,241,5,0,1,1,0,1451.0,391.0,150.0,100.0,0.9,2.1658149600973897,noise_high
2,242,3,1,1,3,1,661.0,531.0,150.0,33.0,0.75,2.1658149600973897,dur_low
2,243,4,0,0,4,1,353.0,334.0,150.0,500.0,0.75,2.1658149600973897,dur_high
2,244,7,0,1,2,0,981.0,429.0,150.0,100.0,0.75,1.0829074800486949,tilt_low
2,245,8,1,1,3,1,421.0,1051.0,150.0,100.0,0.75,4.331629920194779,tilt_high
2,246,9,1,1,2,1,643.0,576.0,150.0,100.0,0.75,2.1658149600973897,baseline
2,247,2,0,0,4,1,306.0,318.0,225.0,100.0,0.75,2.1658149600973897,size_high
2,248,8,1,0,2,0,1430.0,337.0,150.0,100.0,0.75,4.331629920194779,tilt_high
2,249,5,1,1,1,1,683.0,1571.0,150.0,100.0,0.9,2.1658149600973897,noise_high
2,250,7,1,0,2,0,834.0,364.0,150.0,100.0,0.75,1.0829074800486949,tilt_low
2,251,6,1,1,3,1,392.0,483.0,150.0,100.0,0.1,2.1658149600973897,noise_low
2,252,7,0,0,4,1,326.0,488.0,150.0,100.0,0.75,1.0829074800486949,tilt_low
2,253,3,1,0,2,0,765.0,514.0,150.0,33.0,0.75,2.1658149600973897,dur_low
2,254,3,1,0,1,0,669.0,435.0,150.0,33.0,0.75,2.1658149600973897,dur_low
2,255,5,1,1,1,1,456.0,703.0,150.0,100.0,0.9,2.1658149600973897,noise_high
2,256,5,0,1,1,0,513.0,676.0,150.0,100.0,0.9,2.1658149600973897,noise_high
2,257,4,1,0,2,0,198.0,711.0,150.0,500.0,0.75,2.1658149600973897,dur_high
2,258,1,1,0,2,0,829.0,494.0,75.0,100.0,0.75,2.1658149600973897,size_low
2,259,9,0,0,4,1,454.0,431.0,150.0,100.0,0.75,2.1658149600973897,baseline
2,260,7,0,0,4,1,559.0,299.0,150.0,100.0,0.75,1.0829074800486949,tilt_low
2,261,8,0,0,3,1,870.0,365.0,150.0,100.0,0.75,4.331629920194779,tilt_high
2,262,3,0,0,4,1,491.0,258.0,150.0,33.0,0.75,2.1658149600973897,dur_low
2,263,4,1,1,2,1,923.0,611.0,150.0,500.0,0.75,2.1658149600973897,dur_high
2,264,1,1,1,2,1,588.0,439.0,75.0,100.0,0.75,2.1658149600973897,size_low
2,265,9,1,0,3,0,483.0,254.0,150.0,100.0,0.75,2.1658149600973897,baseline
2,266,6,1,1,2,1,982.0,388.0,150.0,100.0,0.1,2.1658149600973897,noise_low
2,267,2,0,0,3,1,561.0,269.0,225.0,100.0,0.75,2.1658149600973897,size_high
2,268,2,1,0,3,0,619.0,344.0,225.0,100.0,0.75,2.1658149600973897,size_high
2,269,4,1,0,2,0,628.0,1419.0,150.0,500.0,0.75,2.1658149600973897,dur_high
2,270,5,0,1,1,0,1490.0,956.0,150.0,100.0,0.9,2.1658149600973897,noise_high
2,271,4,1,1,4,1,289.0,425.0,150.0,500.0,0.75,2.1658149600973897,dur_high
2,272,9,1,0,2,0,747.0,941.0,150.0,100.0,0.75,2.1658149600973897,baseline
2,273,6,1,0,1,0,1450.0,670.0,150.0,100.0,0.1,2.1658149600973897,noise_low
2,274,5,1,1,2,1,649.0,463.0,150.0,100.0,0.9,2.1658149600973897,noise_high
2,275,1,0,1,1,0,1164.0,659.0,75.0,100.0,0.75,2.1658149600973897,size_low
2,276,9,0,0,4,1,491.0,367.0,150.0,100.0,0.75,2.1658149600973897,baseline
2,277,3,1,0,3,0,1264.0,541.0,150.0,33.0,0.75,2.1658149600973897,dur_low
2,278,6,1,1,3,1,574.0,411.0,150.0,100.0,0.1,2.1658149600973897,noise_low
2,279,3,0,0,4,1,687.0,389.0,150.0,33.0,0.75,2.1658149600973897,dur_low
2,280,5,1,1,3,1,1111.0,1509.0,150.0,100.0,0.9,2.1658149600973897,noise_high
2,281,9,0,0,4,1,407.0,287.0,150.0,100.0,0.75,2.1658149600973897,baseline
2,282,1,1,1,4,1,844.0,433.0,75.0,100.0,0.75,2.1658149600973897,size_low
2,283,9,0,0,2,1,933.0,240.0,150.0,100.0,0.75,2.1658149600973897,baseline
2,284,6,0,0,1,1,747.0,699.0,150.0,100.0,0.1,2.1658149600973897,noise_low
2,285,9,1,1,4,1,746.0,352.0,150.0,100.0,0.75,2.1658149600973897,baseline
2,286,7,0,0,3,1,594.0,833.0,150.0,100.0,0.75,1.0829074800486949,tilt_low
2,287,1,1,1,3,1,678.0,839.0,75.0,100.0,0.75,2.1658149600973897,size_low
2,288,9,0,0,4,1,339.0,344.0,150.0,100.0,0.75,2.1658149600973897,baseline
2,289,3,0,0,3,1,585.0,395.0,150.0,33.0,0.75,2.1658149600973897,dur_low
2,290,3,1,1,4,1,594.0,400.0,150.0,33.0,0.75,2.1658149600973897,dur_low
2,291,3,1,1,2,1,831.0,443.0,150.0,33.0,0.75,2.1658149600973897,dur_low
2,292,5,0,1,1,0,426.0,320.0,150.0,100.0,0.9,2.1658149600973897,noise_high
2,293,7,0,0,4,1,368.0,385.0,150.0,100.0,0.75,1.0829074800486949,tilt_low
2,294,6,0,1,1,0,577.0,861.0,150.0,100.0,0.1,2.1658149600973897,noise_low
2,295,2,0,0,4,1,331.0,375.0,225.0,100.0,0.75,2.1658149600973897,size_high
2,296,4,1,0,2,0,738.0,499.0,150.0,500.0,0.75,2.1658149600973897,dur_high
2,297,6,1,1,4,1,462.0,419.0,150.0,100.0,0.1,2.1658149600973897,noise_low
2,298,5,0,1,1,0,650.0,348.0,150.0,100.0,0.9,2.1658149600973897,noise_high
2,299,4,1,0,3,0,271.0,564.0,150.0,500.0,0.75,2.1658149600973897,dur_high
2,300,7,1,0,4,0,409.0,281.0,150.0,100.0,0.75,1.0829074800486949,tilt_low
2,301,9,1,1,4,1,423.0,370.0,150.0,100.0,0.75,2.1658149600973897,baseline
2,302,7,1,1,2,1,607.0,410.0,150.0,100.0,0.75,1.0829074800486949,tilt_low
2,303,4,1,1,4,1,157.0,452.0,150.0,500.0,0.75,2.1658149600973897,dur_high
2,304,8,1,1,2,1,517.0,539.0,150.0,100.0,0.75,4.331629920194779,tilt_high
2,305,4,1,0,3,0,150.0,328.0,150.0,500.0,0.75,2.1658149600973897,dur_high
2,306,1,0,0,4,1,377.0,320.0,75.0,100.0,0.75,2.1658149600973897,size_low
2,307,9,1,1,2,1,921.0,303.0,150.0,100.0,0.75,2.1658149600973897,baseline
2,308,1,1,0,3,0,338.0,443.0,75.0,100.0,0.75,2.1658149600973897,size_low
2,309,9,0,0,4,1,385.0,373.0,150.0,100.0,0.75,2.1658149600973897,baseline
2,310,1,1,1,2,1,478.0,716.0,75.0,100.0,0.75,2.1658149600973897,size_low
2,311,4,0,0,3,1,283.0,563.0,150.0,500.0,0.75,2.1658149600973897,dur_high
2,312,3,1,0,2,0,559.0,531.0,150.0,33.0,0.75,2.1658149600973897,dur_low
2,313,9,0,0,3,1,1101.0,585.0,150.0,100.0,0.75,2.1658149600973897,baseline
2,314,8,0,0,4,1,337.0,186.0,150.0,100.0,0.75,4.331629920194779,tilt_high
2,315,6,1,1,2,1,1288.0,330.0,150.0,100.0,0.1,2.1658149600973897,noise_low
2,316,8,0,0,4,1,264.0,389.0,150.0,100.0,0.75,4.331629920194779,tilt_high
2,317,8,1,1,2,1,556.0,523.0,150.0,100.0,0.75,4.331629920194779,tilt_high
2,318,2,0,0,4,1,313.0,410.0,225.0,100.0,0.75,2.1658149600973897,size_high
2,319,1,1,0,3,0,412.0,321.0,75.0,100.0,0.75,2.1658149600973897,size_low
2,320,1,0,0,4,1,347.0,258.0,75.0,100.0,0.75,2.1658149600973897,size_low
2,321,7,0,0,4,1,330.0,453.0,150.0,100.0,0.75,1.0829074800486949,tilt_low
2,322,9,0,0,3,1,373.0,560.0,150.0,100.0,0.75,2.1658149600973897,baseline
2,323,9,1,1,4,1,333.0,978.0,150.0,100.0,0.75,2.1658149600973897,baseline
2,324,9,0,0,2,1,910.0,336.0,150.0,100.0,0.75,2.1658149600973897,baseline
2,325,1,0,0,3,1,368.0,628.0,75.0,100.0,0.75,2.1658149600973897,size_low
2,326,2,0,0,1,1,769.0,695.0,225.0,100.0,0.75,2.1658149600973897,size_high
2,327,6,0,1,2,0,479.0,884.0,150.0,100.0,0.1,2.1658149600973897,noise_low
2,328,2,1,0,2,0,1418.0,621.0,225.0,100.0,0.75,2.1658149600973897,size_high
2,329,1,0,0,1,1,491.0,554.0,75.0,100.0,0.75,2.1658149600973897,size_low
2,330,5,1,1,1,1,888.0,669.0,150.0,100.0,0.9,2.1658149600973897,noise_high
2,331,4,0,1,2,0,563.0,769.0,150.0,500.0,0.75,2.1658149600973897,dur_high
2,332,6,0,0,2,1,1822.0,497.0,150.0,100.0,0.1,2.1658149600973897,noise_low
2,333,6,0,0,1,1,779.0,390.0,150.0,100.0,0.1,2.1658149600973897,noise_low
2,334,5,1,1,3,1,560.0,1000.0,150.0,100.0,0.9,2.1658149600973897,noise_high
2,335,1,1,1,2,1,707.0,599.0,75.0,100.0,0.75,2.1658149600973897,size_low
2,336,3,0,0,4,1,521.0,445.0,150.0,33.0,0.75,2.1658149600973897,dur_low
2,337,7,0,0,2,1,289.0,803.0,150.0,100.0,0.75,1.0829074800486949,tilt_low
2,338,9,1,1,4,1,962.0,578.0,150.0,100.0,0.75,2.1658149600973897,baseline
2,339,1,0,0,2,1,806.0,534.0,75.0,100.0,0.75,2.1658149600973897,size_low
2,340,2,0,0,1,1,909.0,429.0,225.0,100.0,0.75,2.1658149600973897,size_high
2,341,2,0,0,2,1,410.0,430.0,225.0,100.0,0.75,2.1658149600973897,size_high
2,342,2,1,1,1,1,530.0,666.0,225.0,100.0,0.75,2.1658149600973897,size_high
2,343,7,0,0,2,1,858.0,462.0,150.0,100.0,0.75,1.0829074800486949,tilt_low
2,344,4,1,1,4,1,224.0,431.0,150.0,500.0,0.75,2.1658149600973897,dur_high
2,345,9,0,0,1,1,353.0,709.0,150.0,100.0,0.75,2.1658149600973897,baseline
2,346,2,0,0,2,1,362.0,610.0,225.0,100.0,0.75,2.1658149600973897,size_high
2,347,1,1,1,4,1,596.0,458.0,75.0,100.0,0.75,2.1658149600973897,size_low
2,348,7,0,0,2,1,374.0,368.0,150.0,100.0,0.75,1.0829074800486949,tilt_low
2,349,8,1,1,4,1,456.0,932.0,150.0,100.0,0.75,4.331629920194779,tilt_high
2,350,4,0,0,4,1,252.0,369.0,150.0,500.0,0.75,2.1658149600973897,dur_high
2,351,7,1,1,2,1,593.0,469.0,150.0,100.0,0.75,1.0829074800486949,tilt_low
2,352,1,1,1,3,1,468.0,1058.0,75.0,100.0,0.75,2.1658149600973897,size_low
2,353,4,1,0,2,0,350.0,750.0,150.0,500.0,0.75,2.1658149600973897,dur_high
2,354,9,1,1,1,1,794.0,754.0,150.0,100.0,0.75,2.1658149600973897,baseline
2,355,3,0,0,3,1,573.0,599.0,150.0,33.0,0.75,2.1658149600973897,dur_low
2,356,7,1,1,3,1,556.0,985.0,150.0,100.0,0.75,1.0829074800486949,tilt_low
2,357,5,1,1,2,1,632.0,332.0,150.0,100.0,0.9,2.1658149600973897,noise_high
2,358,5,0,0,1,1,766.0,621.0,150.0,100.0,0.9,2.1658149600973897,noise_high
2,359,6,1,1,1,1,722.0,1283.0,150.0,100.0,0.1,2.1658149600973897,noise_low
2,360,5,0,0,3,1,490.0,428.0,150.0,100.0,0.9,2.1658149600973897,noise_high
2,361,5,1,1,2,1,781.0,456.0,150.0,100.0,0.9,2.1658149600973897,noise_high
2,362,9,0,0,4,1,392.0,577.0,150.0,100.0,0.75,2.1658149600973897,baseline
2,363,6,0,0,2,1,521.0,616.0,150.0,100.0,0.1,2.1658149600973897,noise_low
2,364,6,0,1,1,0,1500.0,853.0,150.0,100.0,0.1,2.1658149600973897,noise_low
2,365,8,1,1,4,1,693.0,417.0,150.0,100.0,0.75,4.331629920194779,tilt_high
2,366,8,1,1,4,1,448.0,373.0,150.0,100.0,0.75,4.331629920194779,tilt_high
2,367,7,0,0,3,1,780.0,748.0,150.0,100.0,0.75,1.0829074800486949,tilt_low
2,368,4,1,1,4,1,408.0,432.0,150.0,500.0,0.75,2.1658149600973897,dur_high
2,369,9,1,1,2,1,1027.0,378.0,150.0,100.0,0.75,2.1658149600973897,baseline
2,370,5,1,1,1,1,565.0,314.0,150.0,100.0,0.9,2.1658149600973897,noise_high
2,371,9,0,0,4,1,522.0,474.0,150.0,100.0,0.75,2.1658149600973897,baseline
2,372,7,0,1,1,0,877.0,513.0,150.0,100.0,0.75,1.0829074800486949,tilt_low
2,373,4,1,1,2,1,880.0,587.0,150.0,500.0,0.75,2.1658149600973897,dur_high
2,374,5,1,1,1,1,509.0,338.0,150.0,100.0,0.9,2.1658149600973897,noise_high
2,375,2,0,0,4,1,508.0,774.0,225.0,100.0,0.75,2.1658149600973897,size_high
2,376,2,1,0,1,0,779.0,388.0,225.0,100.0,0.75,2.1658149600973897,size_high
2,377,9,0,0,2,1,485.0,624.0,150.0,100.0,0.75,2.1658149600973897,baseline
2,378,4,1,1,1,1,415.0,388.0,150.0,500.0,0.75,2.1658149600973897,dur_high
2,379,5,1,0,1,0,580.0,407.0,150.0,100.0,0.9,2.1658149600973897,noise_high
2,380,8,0,0,4,1,303.0,361.0,150.0,100.0,0.75,4.331629920194779,tilt_high
2,381,3,0,1,2,0,759.0,328.0,150.0,33.0,0.75,2.1658149600973897,dur_low
2,382,5,0,1,1,0,432.0,378.0,150.0,100.0,0.9,2.1658149600973897,noise_high
2,383,9,1,1,4,1,594.0,702.0,150.0,100.0,0.75,2.1658149600973897,baseline
2,384,5,0,1,1,0,419.0,302.0,150.0,100.0,0.9,2.1658149600973897,noise_high
2,385,6,1,1,2,1,1145.0,360.0,150.0,100.0,0.1,2.1658149600973897,noise_low
2,386,9,1,1,1,1,455.0,267.0,150.0,100.0,0.75,2.1658149600973897,baseline
2,387,1,0,1,1,0,835.0,996.0,75.0,100.0,0.75,2.1658149600973897,size_low
2,388,3,0,0,3,1,673.0,594.0,150.0,33.0,0.75,2.1658149600973897,dur_low
2,389,6,0,0,4,1,445.0,551.0,150.0,100.0,0.1,2.1658149600973897,noise_low
2,390,2,0,0,3,1,529.0,465.0,225.0,100.0,0.75,2.1658149600973897,size_high
2,391,5,1,1,1,1,694.0,223.0,150.0,100.0,0.9,2.1658149600973897,noise_high
2,392,1,0,0,2,1,837.0,593.0,75.0,100.0,0.75,2.1658149600973897,size_low
2,393,7,1,0,2,0,496.0,487.0,150.0,100.0,0.75,1.0829074800486949,tilt_low
2,394,3,1,0,1,0,776.0,759.0,150.0,33.0,0.75,2.1658149600973897,dur_low
2,395,7,1,0,3,0,374.0,551.0,150.0,100.0,0.75,1.0829074800486949,tilt_low
2,396,7,0,0,4,1,381.0,325.0,150.0,100.0,0.75,1.0829074800486949,tilt_low
2,397,2,0,1,2,0,1040.0,301.0,225.0,100.0,0.75,2.1658149600973897,size_high
2,398,6,1,0,2,0,1480.0,828.0,150.0,100.0,0.1,2.1658149600973897,noise_low
2,399,3,0,0,3,1,652.0,773.0,150.0,33.0,0.75,2.1658149600973897,dur_low
2,400,5,1,1,1,1,847.0,608.0,150.0,100.0,0.9,2.1658149600973897,noise_high
2,401,1,1,0,2,0,1278.0,559.0,75.0,100.0,0.75,2.1658149600973897,size_low
2,402,9,0,0,3,1,533.0,580.0,150.0,100.0,0.75,2.1658149600973897,baseline
2,403,9,1,1,4,1,758.0,1165.0,150.0,100.0,0.75,2.1658149600973897,baseline
2,404,4,1,0,2,0,893.0,832.0,150.0,500.0,0.75,2.1658149600973897,dur_high
2,405,8,0,0,3,1,375.0,513.0,150.0,100.0,0.75,4.331629920194779,tilt_high
2,406,3,1,0,2,0,1519.0,721.0,150.0,33.0,0.75,2.1658149600973897,dur_low
2,407,4,1,1,3,1,407.0,465.0,150.0,500.0,0.75,2.1658149600973897,dur_high
2,408,2,0,0,4,1,583.0,374.0,225.0,100.0,0.75,2.1658149600973897,size_high
2,409,1,0,0,4,1,523.0,381.0,75.0,100.0,0.75,2.1658149600973897,size_low
2,410,4,0,0,2,1,499.0,438.0,150.0,500.0,0.75,2.1658149600973897,dur_high
2,411,8,1,1,4,1,1174.0,380.0,150.0,100.0,0.75,4.331629920194779,tilt_high
2,412,3,1,0,3,0,474.0,402.0,150.0,33.0,0.75,2.1658149600973897,dur_low
2,413,9,0,0,4,1,474.0,296.0,150.0,100.0,0.75,2.1658149600973897,baseline
2,414,7,1,1,3,1,799.0,1621.0,150.0,100.0,0.75,1.0829074800486949,tilt_low
2,415,5,1,1,1,1,654.0,476.0,150.0,100.0,0.9,2.1658149600973897,noise_high
2,416,1,1,1,4,1,730.0,783.0,75.0,100.0,0.75,2.1658149600973897,size_low
2,417,8,0,0,4,1,523.0,447.0,150.0,100.0,0.75,4.331629920194779,tilt_high
2,418,4,0,0,3,1,531.0,275.0,150.0,500.0,0.75,2.1658149600973897,dur_high
2,419,2,0,0,4,1,522.0,457.0,225.0,100.0,0.75,2.1658149600973897,size_high
2,420,7,1,1,2,1,1046.0,459.0,150.0,100.0,0.75,1.0829074800486949,tilt_low
2,421,7,1,0,3,0,781.0,257.0,150.0,100.0,0.75,1.0829074800486949,tilt_low
2,422,9,1,0,3,0,1189.0,878.0,150.0,100.0,0.75,2.1658149600973897,baseline
2,423,9,0,0,4,1,494.0,182.0,150.0,100.0,0.75,2.1658149600973897,baseline
2,424,2,1,1,2,1,1229.0,192.0,225.0,100.0,0.75,2.1658149600973897,size_high
2,425,8,0,0,4,1,325.0,272.0,150.0,100.0,0.75,4.331629920194779,tilt_high
2,426,2,0,0,3,1,551.0,391.0,225.0,100.0,0.75,2.1658149600973897,size_high
2,427,5,1,1,2,1,822.0,1171.0,150.0,100.0,0.9,2.1658149600973897,noise_high
2,428,8,1,1,4,1,571.0,524.0,150.0,100.0,0.75,4.331629920194779,tilt_high
2,429,5,1,1,3,1,1786.0,273.0,150.0,100.0,0.9,2.1658149600973897,noise_high
2,430,9,1,1,3,1,785.0,496.0,150.0,100.0,0.75,2.1658149600973897,baseline
2,431,7,0,0,4,1,429.0,281.0,150.0,100.0,0.75,1.0829074800486949,tilt_low
2,432,8,0,0,4,1,418.0,216.0,150.0,100.0,0.75,4.331629920194779,tilt_high
2,433,3,1,0,3,0,1263.0,252.0,150.0,33.0,0.75,2.1658149600973897,dur_low
2,434,8,0,0,4,1,430.0,313.0,150.0,100.0,0.75,4.331629920194779,tilt_high
2,435,4,0,0,4,1,361.0,260.0,150.0,500.0,0.75,2.1658149600973897,dur_high
2,436,4,0,0,4,1,1087.0,504.0,150.0,500.0,0.75,2.1658149600973897,dur_high
2,437,6,0,0,3,1,2009.0,513.0,150.0,100.0,0.1,2.1658149600973897,noise_low
2,438,9,0,0,4,1,604.0,302.0,150.0,100.0,0.75,2.1658149600973897,baseline
2,439,4,1,1,4,1,669.0,529.0,150.0,500.0,0.75,2.1658149600973897,dur_high
2,440,9,1,1,2,1,980.0,353.0,150.0,100.0,0.75,2.1658149600973897,baseline
2,441,9,1,1,3,1,526.0,409.0,150.0,100.0,0.75,2.1658149600973897,baseline
2,442,4,1,0,3,0,521.0,744.0,150.0,500.0,0.75,2.1658149600973897,dur_high
2,443,9,0,0,4,1,334.0,284.0,150.0,100.0,0.75,2.1658149600973897,baseline
2,444,6,0,0,3,1,394.0,498.0,150.0,100.0,0.1,2.1658149600973897,noise_low
2,445,4,0,0,1,1,296.0,491.0,150.0,500.0,0.75,2.1658149600973897,dur_high
2,446,9,0,0,3,1,357.0,213.0,150.0,100.0,0.75,2.1658149600973897,baseline
2,447,1,0,0,2,1,569.0,265.0,75.0,100.0,0.75,2.1658149600973897,size_low
2,448,2,1,0,3,0,1154.0,402.0,225.0,100.0,0.75,2.1658149600973897,size_high
2,449,2,1,1,4,1,850.0,1100.0,225.0,100.0,0.75,2.1658149600973897,size_high
2,450,1,0,0,4,1,499.0,445.0,75.0,100.0,0.75,2.1658149600973897,size_low
2,451,4,0,0,2,1,1069.0,413.0,150.0,500.0,0.75,2.1658149600973897,dur_high
2,452,3,1,1,1,1,940.0,1249.0,150.0,33.0,0.75,2.1658149600973897,dur_low
2,453,4,0,0,4,1,285.0,428.0,150.0,500.0,0.75,2.1658149600973897,dur_high
2,454,3,1,0,3,0,2704.0,380.0,150.0,33.0,0.75,2.1658149600973897,dur_low
2,455,8,1,1,4,1,1693.0,690.0,150.0,100.0,0.75,4.331629920194779,tilt_high
2,456,5,1,0,1,0,2057.0,589.0,150.0,100.0,0.9,2.1658149600973897,noise_high
2,457,6,1,0,2,0,675.0,532.0,150.0,100.0,0.1,2.1658149600973897,noise_low
2,458,9,1,0,4,0,1315.0,394.0,150.0,100.0,0.75,2.1658149600973897,baseline
2,459,6,1,0,3,0,1433.0,255.0,150.0,100.0,0.1,2.1658149600973897,noise_low
2,460,9,0,0,4,1,674.0,258.0,150.0,100.0,0.75,2.1658149600973897,baseline
2,461,8,0,0,4,1,482.0,776.0,150.0,100.0,0.75,4.331629920194779,tilt_high
2,462,3,0,0,3,1,535.0,580.0,150.0,33.0,0.75,2.1658149600973897,dur_low
2,463,4,1,1,4,1,418.0,541.0,150.0,500.0,0.75,2.1658149600973897,dur_high
2,464,9,1,0,1,0,728.0,494.0,150.0,100.0,0.75,2.1658149600973897,baseline
2,465,9,1,1,4,1,706.0,353.0,150.0,100.0,0.75,2.1658149600973897,baseline
2,466,4,0,0,4,1,264.0,248.0,150.0,500.0,0.75,2.1658149600973897,dur_high
2,467,9,0,0,4,1,504.0,828.0,150.0,100.0,0.75,2.1658149600973897,baseline
2,468,8,0,0,4,1,767.0,718.0,150.0,100.0,0.75,4.331629920194779,tilt_high
2,469,2,0,0,2,1,946.0,986.0,225.0,100.0,0.75,2.1658149600973897,size_high
2,470,3,0,0,1,1,544.0,499.0,150.0,33.0,0.75,2.1658149600973897,dur_low
2,471,7,0,1,1,0,1128.0,688.0,150.0,100.0,0.75,1.0829074800486949,tilt_low
2,472,9,1,1,4,1,1109.0,536.0,150.0,100.0,0.75,2.1658149600973897,baseline
2,473,1,1,0,2,0,647.0,372.0,75.0,100.0,0.75,2.1658149600973897,size_low
2,474,8,0,0,4,1,445.0,241.0,150.0,100.0,0.75,4.331629920194779,tilt_high
2,475,4,1,1,4,1,439.0,727.0,150.0,500.0,0.75,2.1658149600973897,dur_high
2,476,2,0,1,2,0,838.0,359.0,225.0,100.0,0.75,2.1658149600973897,size_high
2,477,7,1,0,1,0,618.0,467.0,150.0,100.0,0.75,1.0829074800486949,tilt_low
2,478,2,0,0,3,1,397.0,308.0,225.0,100.0,0.75,2.1658149600973897,size_high
2,479,4,1,0,3,0,320.0,519.0,150.0,500.0,0.75,2.1658149600973897,dur_high
2,480,8,1,1,4,1,954.0,763.0,150.0,100.0,0.75,4.331629920194779,tilt_high
2,481,3,0,0,4,1,1410.0,1085.0,150.0,33.0,0.75,2.1658149600973897,dur_low
2,482,9,0,0,3,1,645.0,309.0,150.0,100.0,0.75,2.1658149600973897,baseline
2,483,9,1,1,3,1,802.0,698.0,150.0,100.0,0.75,2.1658149600973897,baseline
2,484,2,1,1,1,1,1571.0,487.0,225.0,100.0,0.75,2.1658149600973897,size_high
2,485,7,1,0,3,0,380.0,369.0,150.0,100.0,0.75,1.0829074800486949,tilt_low
2,486,3,1,1,2,1,1211.0,517.0,150.0,33.0,0.75,2.1658149600973897,dur_low
2,487,9,1,1,4,1,544.0,647.0,150.0,100.0,0.75,2.1658149600973897,baseline
2,488,4,1,0,1,0,1027.0,795.0,150.0,500.0,0.75,2.1658149600973897,dur_high
2,489,8,0,0,3,1,420.0,248.0,150.0,100.0,0.75,4.331629920194779,tilt_high
2,490,6,0,0,4,1,374.0,269.0,150.0,100.0,0.1,2.1658149600973897,noise_low
2,491,2,1,1,1,1,528.0,667.0,225.0,100.0,0.75,2.1658149600973897,size_high
2,492,1,0,0,4,1,459.0,371.0,75.0,100.0,0.75,2.1658149600973897,size_low
2,493,1,0,0,3,1,545.0,287.0,75.0,100.0,0.75,2.1658149600973897,size_low
2,494,6,1,1,2,1,708.0,417.0,150.0,100.0,0.1,2.1658149600973897,noise_low
2,495,1,0,0,4,1,557.0,342.0,75.0,100.0,0.75,2.1658149600973897,size_low
2,496,9,0,0,3,1,492.0,978.0,150.0,100.0,0.75,2.1658149600973897,baseline
2,497,9,1,1,1,1,649.0,662.0,150.0,100.0,0.75,2.1658149600973897,baseline
2,498,5,0,0,3,1,512.0,475.0,150.0,100.0,0.9,2.1658149600973897,noise_high
2,499,2,1,0,4,0,448.0,250.0,225.0,100.0,0.75,2.1658149600973897,size_high
2,500,4,0,0,4,1,417.0,388.0,150.0,500.0,0.75,2.1658149600973897,dur_high
2,501,6,0,0,4,1,445.0,344.0,150.0,100.0,0.1,2.1658149600973897,noise_low
2,502,7,0,0,4,1,464.0,392.0,150.0,100.0,0.75,1.0829074800486949,tilt_low
2,503,5,0,1,1,0,1312.0,891.0,150.0,100.0,0.9,2.1658149600973897,noise_high
2,504,6,0,1,2,0,879.0,403.0,150.0,100.0,0.1,2.1658149600973897,noise_low
2,505,2,1,0,2,0,925.0,480.0,225.0,100.0,0.75,2.1658149600973897,size_high
2,506,3,0,0,4,1,494.0,373.0,150.0,33.0,0.75,2.1658149600973897,dur_low
2,507,7,1,1,2,1,623.0,412.0,150.0,100.0,0.75,1.0829074800486949,tilt_low
2,508,5,1,1,1,1,1908.0,169.0,150.0,100.0,0.9,2.1658149600973897,noise_high
2,509,1,1,1,2,1,1475.0,650.0,75.0,100.0,0.75,2.1658149600973897,size_low
2,510,5,1,1,1,1,569.0,159.0,150.0,100.0,0.9,2.1658149600973897,noise_high
2,511,7,1,0,3,0,1127.0,176.0,150.0,100.0,0.75,1.0829074800486949,tilt_low
2,512,3,1,1,1,1,2722.0,518.0,150.0,33.0,0.75,2.1658149600973897,dur_low
2,513,9,0,0,4,1,216.0,299.0,150.0,100.0,0.75,2.1658149600973897,baseline
2,514,9,0,0,2,1,540.0,593.0,150.0,100.0,0.75,2.1658149600973897,baseline
2,515,1,1,0,4,0,347.0,201.0,75.0,100.0,0.75,2.1658149600973897,size_low
2,516,8,0,0,4,1,416.0,295.0,150.0,100.0,0.75,4.331629920194779,tilt_high
2,517,9,0,0,3,1,482.0,363.0,150.0,100.0,0.75,2.1658149600973897,baseline
2,518,2,0,0,4,1,333.0,228.0,225.0,100.0,0.75,2.1658149600973897,size_high
2,519,7,1,0,2,0,685.0,400.0,150.0,100.0,0.75,1.0829074800486949,tilt_low
2,520,2,1,1,4,1,897.0,538.0,225.0,100.0,0.75,2.1658149600973897,size_high
2,521,7,0,0,3,1,1023.0,444.0,150.0,100.0,0.75,1.0829074800486949,tilt_low
2,522,9,0,0,4,1,335.0,141.0,150.0,100.0,0.75,2.1658149600973897,baseline
2,523,1,1,1,2,1,827.0,141.0,75.0,100.0,0.75,2.1658149600973897,size_low
2,524,2,0,0,4,1,391.0,162.0,225.0,100.0,0.75,2.1658149600973897,size_high
2,525,8,1,1,1,1,742.0,281.0,150.0,100.0,0.75,4.331629920194779,tilt_high
2,526,6,1,1,2,1,1002.0,148.0,150.0,100.0,0.1,2.1658149600973897,noise_low
2,527,4,0,0,4,1,425.0,270.0,150.0,500.0,0.75,2.1658149600973897,dur_high
2,528,2,1,1,2,1,1237.0,126.0,225.0,100.0,0.75,2.1658149600973897,size_high
2,529,4,0,0,1,1,457.0,1418.0,150.0,500.0,0.75,2.1658149600973897,dur_high
2,530,5,0,1,2,0,563.0,594.0,150.0,100.0,0.9,2.1658149600973897,noise_high
2,531,3,1,1,4,1,672.0,453.0,150.0,33.0,0.75,2.1658149600973897,dur_low
2,532,3,1,1,2,1,952.0,209.0,150.0,33.0,0.75,2.1658149600973897,dur_low
2,533,8,1,1,3,1,529.0,451.0,150.0,100.0,0.75,4.331629920194779,tilt_high
2,534,8,0,0,4,1,418.0,206.0,150.0,100.0,0.75,4.331629920194779,tilt_high
2,535,9,1,1,3,1,859.0,1068.0,150.0,100.0,0.75,2.1658149600973897,baseline
2,536,2,1,1,2,1,977.0,659.0,225.0,100.0,0.75,2.1658149600973897,size_high
2,537,3,0,0,1,1,796.0,546.0,150.0,33.0,0.75,2.1658149600973897,dur_low
2,538,7,1,1,2,1,626.0,216.0,150.0,100.0,0.75,1.0829074800486949,tilt_low
2,539,9,0,1,2,0,909.0,336.0,150.0,100.0,0.75,2.1658149600973897,baseline
2,540,4,1,1,3,1,359.0,362.0,150.0,500.0,0.75,2.1658149600973897,dur_high
2,541,7,0,0,4,1,506.0,238.0,150.0,100.0,0.75,1.0829074800486949,tilt_low
2,542,2,1,1,2,1,506.0,347.0,225.0,100.0,0.75,2.1658149600973897,size_high
2,543,9,0,0,3,1,1787.0,530.0,150.0,100.0,0.75,2.1658149600973897,baseline
2,544,5,0,1,1,0,793.0,474.0,150.0,100.0,0.9,2.1658149600973897,noise_high
2,545,1,1,1,2,1,661.0,425.0,75.0,100.0,0.75,2.1658149600973897,size_low
2,546,8,1,1,3,1,627.0,362.0,150.0,100.0,0.75,4.331629920194779,tilt_high
2,547,2,1,0,3,0,765.0,167.0,225.0,100.0,0.75,2.1658149600973897,size_high
2,548,5,1,0,1,0,1202.0,441.0,150.0,100.0,0.9,2.1658149600973897,noise_high
2,549,6,1,1,3,1,564.0,664.0,150.0,100.0,0.1,2.1658149600973897,noise_low
2,550,1,1,0,4,0,717.0,979.0,75.0,100.0,0.75,2.1658149600973897,size_low
2,551,4,0,0,4,1,465.0,535.0,150.0,500.0,0.75,2.1658149600973897,dur_high
2,552,3,0,0,3,1,668.0,623.0,150.0,33.0,0.75,2.1658149600973897,dur_low
2,553,9,0,0,4,1,483.0,259.0,150.0,100.0,0.75,2.1658149600973897,baseline
2,554,2,0,1,2,0,866.0,247.0,225.0,100.0,0.75,2.1658149600973897,size_high
2,555,1,0,0,3,1,525.0,466.0,75.0,100.0,0.75,2.1658149600973897,size_low
2,556,3,0,1,2,0,803.0,315.0,150.0,33.0,0.75,2.1658149600973897,dur_low
2,557,1,0,1,2,0,719.0,684.0,75.0,100.0,0.75,2.1658149600973897,size_low
2,558,1,1,0,2,0,498.0,314.0,75.0,100.0,0.75,2.1658149600973897,size_low
2,559,9,1,0,3,0,692.0,427.0,150.0,100.0,0.75,2.1658149600973897,baseline
2,560,1,1,0,4,0,667.0,185.0,75.0,100.0,0.75,2.1658149600973897,size_low
2,561,1,1,0,1,0,711.0,739.0,75.0,100.0,0.75,2.1658149600973897,size_low
2,562,3,1,1,2,1,944.0,295.0,150.0,33.0,0.75,2.1658149600973897,dur_low
2,563,5,0,1,1,0,968.0,528.0,150.0,100.0,0.9,2.1658149600973897,noise_high
2,564,2,0,0,4,1,468.0,248.0,225.0,100.0,0.75,2.1658149600973897,size_high
2,565,9,1,0,3,0,957.0,286.0,150.0,100.0,0.75,2.1658149600973897,baseline
2,566,4,1,1,4,1,502.0,425.0,150.0,500.0,0.75,2.1658149600973897,dur_high
2,567,3,1,1,2,1,1127.0,257.0,150.0,33.0,0.75,2.1658149600973897,dur_low
2,568,3,0,0,3,1,662.0,370.0,150.0,33.0,0.75,2.1658149600973897,dur_low
2,569,2,1,1,4,1,670.0,304.0,225.0,100.0,0.75,2.1658149600973897,size_high
2,570,4,1,1,2,1,2288.0,413.0,150.0,500.0,0.75,2.1658149600973897,dur_high
2,571,1,1,0,1,0,1355.0,488.0,75.0,100.0,0.75,2.1658149600973897,size_low
2,572,7,1,1,1,1,1823.0,779.0,150.0,100.0,0.75,1.0829074800486949,tilt_low
2,573,6,0,0,3,1,577.0,230.0,150.0,100.0,0.1,2.1658149600973897,noise_low
2,574,5,0,1,1,0,676.0,202.0,150.0,100.0,0.9,2.1658149600973897,noise_high
2,575,9,1,1,2,1,825.0,348.0,150.0,100.0,0.75,2.1658149600973897,baseline
2,576,9,1,0,3,0,680.0,285.0,150.0,100.0,0.75,2.1658149600973897,baseline
2,577,6,1,0,3,0,897.0,1803.0,150.0,100.0,0.1,2.1658149600973897,noise_low
2,578,8,0,0,4,1,434.0,256.0,150.0,100.0,0.75,4.331629920194779,tilt_high
2,579,8,1,1,2,1,380.0,757.0,150.0,100.0,0.75,4.331629920194779,tilt_high
2,580,7,1,0,3,0,375.0,370.0,150.0,100.0,0.75,1.0829074800486949,tilt_low
2,581,9,1,0,2,0,533.0,233.0,150.0,100.0,0.75,2.1658149600973897,baseline
2,582,3,0,0,4,1,393.0,237.0,150.0,33.0,0.75,2.1658149600973897,dur_low
2,583,3,1,1,4,1,937.0,424.0,150.0,33.0,0.75,2.1658149600973897,dur_low
2,584,5,1,1,1,1,561.0,286.0,150.0,100.0,0.9,2.1658149600973897,noise_high
2,585,5,0,1,2,0,574.0,535.0,150.0,100.0,0.9,2.1658149600973897,noise_high
2,586,4,0,0,4,1,174.0,349.0,150.0,500.0,0.75,2.1658149600973897,dur_high
2,587,9,0,0,2,1,513.0,374.0,150.0,100.0,0.75,2.1658149600973897,baseline
2,588,1,0,0,1,1,889.0,397.0,75.0,100.0,0.75,2.1658149600973897,size_low
2,589,7,0,0,4,1,340.0,317.0,150.0,100.0,0.75,1.0829074800486949,tilt_low
2,590,1,0,0,3,1,462.0,289.0,75.0,100.0,0.75,2.1658149600973897,size_low
2,591,7,0,0,4,1,398.0,334.0,150.0,100.0,0.75,1.0829074800486949,tilt_low
2,592,9,1,1,3,1,748.0,1438.0,150.0,100.0,0.75,2.1658149600973897,baseline
2,593,7,1,1,2,1,725.0,450.0,150.0,100.0,0.75,1.0829074800486949,tilt_low
2,594,9,1,0,4,0,1191.0,980.0,150.0,100.0,0.75,2.1658149600973897,baseline
2,595,2,0,0,4,1,504.0,663.0,225.0,100.0,0.75,2.1658149600973897,size_high
2,596,8,1,1,2,1,956.0,276.0,150.0,100.0,0.75,4.331629920194779,tilt_high
2,597,1,1,0,3,0,527.0,376.0,75.0,100.0,0.75,2.1658149600973897,size_low
2,598,8,0,0,4,1,534.0,208.0,150.0,100.0,0.75,4.331629920194779,tilt_high
2,599,6,0,0,3,1,647.0,433.0,150.0,100.0,0.1,2.1658149600973897,noise_low
2,600,2,0,0,2,1,880.0,566.0,225.0,100.0,0.75,2.1658149600973897,size_high
2,601,4,1,1,1,1,408.0,1168.0,150.0,500.0,0.75,2.1658149600973897,dur_high
2,602,9,0,0,3,1,380.0,465.0,150.0,100.0,0.75,2.1658149600973897,baseline
2,603,5,1,1,1,1,524.0,242.0,150.0,100.0,0.9,2.1658149600973897,noise_high
2,604,3,1,1,2,1,632.0,386.0,150.0,33.0,0.75,2.1658149600973897,dur_low
2,605,6,0,0,4,1,392.0,1253.0,150.0,100.0,0.1,2.1658149600973897,noise_low
2,606,6,1,1,2,1,594.0,281.0,150.0,100.0,0.1,2.1658149600973897,noise_low
2,607,9,1,0,3,0,644.0,323.0,150.0,100.0,0.75,2.1658149600973897,baseline
2,608,6,1,0,4,0,1147.0,259.0,150.0,100.0,0.1,2.1658149600973897,noise_low
2,609,8,1,1,2,1,735.0,598.0,150.0,100.0,0.75,4.331629920194779,tilt_high
2,610,9,0,0,3,1,647.0,302.0,150.0,100.0,0.75,2.1658149600973897,baseline
2,611,6,1,1,2,1,762.0,912.0,150.0,100.0,0.1,2.1658149600973897,noise_low
2,612,2,0,0,4,1,589.0,239.0,225.0,100.0,0.75,2.1658149600973897,size_high
2,613,6,0,0,3,1,478.0,312.0,150.0,100.0,0.1,2.1658149600973897,noise_low
2,614,1,0,1,1,0,525.0,351.0,75.0,100.0,0.75,2.1658149600973897,size_low
2,615,9,0,0,4,1,374.0,248.0,150.0,100.0,0.75,2.1658149600973897,baseline
2,616,2,0,0,3,1,375.0,315.0,225.0,100.0,0.75,2.1658149600973897,size_high
2,617,8,1,1,4,1,1172.0,487.0,150.0,100.0,0.75,4.331629920194779,tilt_high
2,618,9,1,1,1,1,744.0,925.0,150.0,100.0,0.75,2.1658149600973897,baseline
2,619,9,1,1,2,1,491.0,324.0,150.0,100.0,0.75,2.1658149600973897,baseline
2,620,8,1,1,3,1,602.0,903.0,150.0,100.0,0.75,4.331629920194779,tilt_high
2,621,4,0,0,3,1,278.0,569.0,150.0,500.0,0.75,2.1658149600973897,dur_high
2,622,1,0,0,2,1,724.0,585.0,75.0,100.0,0.75,2.1658149600973897,size_low
2,623,6,0,0,4,1,403.0,545.0,150.0,100.0,0.1,2.1658149600973897,noise_low
2,624,7,1,1,1,1,1285.0,1412.0,150.0,100.0,0.75,1.0829074800486949,tilt_low
2,625,4,1,1,1,1,1206.0,733.0,150.0,500.0,0.75,2.1658149600973897,dur_high
2,626,5,1,1,1,1,1054.0,328.0,150.0,100.0,0.9,2.1658149600973897,noise_high
2,627,2,0,0,4,1,375.0,380.0,225.0,100.0,0.75,2.1658149600973897,size_high
2,628,5,0,1,1,0,526.0,344.0,150.0,100.0,0.9,2.1658149600973897,noise_high
2,629,7,1,0,3,0,878.0,155.0,150.0,100.0,0.75,1.0829074800486949,tilt_low
2,630,7,0,0,4,1,849.0,502.0,150.0,100.0,0.75,1.0829074800486949,tilt_low
2,631,7,0,0,4,1,412.0,293.0,150.0,100.0,0.75,1.0829074800486949,tilt_low
2,632,4,0,0,4,1,275.0,598.0,150.0,500.0,0.75,2.1658149600973897,dur_high
2,633,8,0,0,3,1,516.0,305.0,150.0,100.0,0.75,4.331629920194779,tilt_high
2,634,4,0,0,4,1,400.0,627.0,150.0,500.0,0.75,2.1658149600973897,dur_high
2,635,5,1,1,1,1,975.0,491.0,150.0,100.0,0.9,2.1658149600973897,noise_high
2,636,9,0,0,2,1,868.0,439.0,150.0,100.0,0.75,2.1658149600973897,baseline
2,637,9,1,1,3,1,606.0,362.0,150.0,100.0,0.75,2.1658149600973897,baseline
2,638,4,1,0,4,0,396.0,331.0,150.0,500.0,0.75,2.1658149600973897,dur_high
2,639,6,1,1,2,1,844.0,211.0,150.0,100.0,0.1,2.1658149600973897,noise_low
2,640,7,1,0,1,0,1420.0,937.0,150.0,100.0,0.75,1.0829074800486949,tilt_low
2,641,4,1,1,4,1,508.0,420.0,150.0,500.0,0.75,2.1658149600973897,dur_high
2,642,1,0,0,3,1,529.0,441.0,75.0,100.0,0.75,2.1658149600973897,size_low
2,643,5,0,0,1,1,1234.0,178.0,150.0,100.0,0.9,2.1658149600973897,noise_high
2,644,2,0,0,4,1,651.0,310.0,225.0,100.0,0.75,2.1658149600973897,size_high
2,645,6,0,1,2,0,1137.0,327.0,150.0,100.0,0.1,2.1658149600973897,noise_low
2,646,2,1,1,3,1,660.0,246.0,225.0,100.0,0.75,2.1658149600973897,size_high
2,647,8,0,0,4,1,462.0,301.0,150.0,100.0,0.75,4.331629920194779,tilt_high
2,648,3,0,0,1,1,550.0,1097.0,150.0,33.0,0.75,2.1658149600973897,dur_low
2,649,1,1,0,2,0,975.0,580.0,75.0,100.0,0.75,2.1658149600973897,size_low
2,650,1,0,0,3,1,438.0,285.0,75.0,100.0,0.75,2.1658149600973897,size_low
2,651,7,1,0,2,0,496.0,592.0,150.0,100.0,0.75,1.0829074800486949,tilt_low
2,652,9,0,0,4,1,443.0,297.0,150.0,100.0,0.75,2.1658149600973897,baseline
2,653,2,1,1,2,1,959.0,481.0,225.0,100.0,0.75,2.1658149600973897,size_high
2,654,2,1,1,1,1,1221.0,314.0,225.0,100.0,0.75,2.1658149600973897,size_high
2,655,2,0,0,3,1,394.0,324.0,225.0,100.0,0.75,2.1658149600973897,size_high
2,656,8,0,0,4,1,321.0,229.0,150.0,100.0,0.75,4.331629920194779,tilt_high
2,657,1,1,1,2,1,658.0,216.0,75.0,100.0,0.75,2.1658149600973897,size_low
2,658,6,1,0,1,0,598.0,1017.0,150.0,100.0,0.1,2.1658149600973897,noise_low
2,659,6,1,1,2,1,521.0,337.0,150.0,100.0,0.1,2.1658149600973897,noise_low
2,660,1,0,0,4,1,475.0,224.0,75.0,100.0,0.75,2.1658149600973897,size_low
2,661,4,0,1,2,0,860.0,273.0,150.0,500.0,0.75,2.1658149600973897,dur_high
