subject_ID,trial_no,condition,binary_condition,answer,percept_resp,conf_resp,correct,percept_rt,conf_rt,stim_size,stim_sf,stim_contrast,stim_tilt_diff
1,1,12,1100,0,1,1,0,3073.0,1197.0,90.0,3.5,0.75,5.6456138759117245
1,2,9,1001,0,0,2,1,1835.0,1422.0,90.0,8.0,0.75,3.136452153284292
1,3,1,1,0,0,1,1,3266.0,675.0,225.0,8.0,0.75,3.136452153284292
1,4,6,110,0,1,1,0,3424.0,666.0,225.0,3.5,0.85,5.6456138759117245
1,5,4,100,1,1,4,1,741.0,329.0,225.0,3.5,0.75,5.6456138759117245
1,6,0,0,0,0,2,1,1349.0,676.0,225.0,8.0,0.75,5.6456138759117245
1,7,12,1100,1,1,4,1,576.0,347.0,90.0,3.5,0.75,5.6456138759117245
1,8,9,1001,0,1,2,0,1387.0,319.0,90.0,8.0,0.75,3.136452153284292
1,9,5,101,1,1,2,1,835.0,531.0,225.0,3.5,0.75,3.136452153284292
1,10,5,101,0,0,3,1,1325.0,1141.0,225.0,3.5,0.75,3.136452153284292
1,11,4,100,1,1,3,1,828.0,484.0,225.0,3.5,0.75,5.6456138759117245
1,12,12,1100,0,0,4,1,546.0,293.0,90.0,3.5,0.75,5.6456138759117245
1,13,12,1100,0,0,3,1,717.0,1055.0,90.0,3.5,0.75,5.6456138759117245
1,14,7,111,1,1,1,1,656.0,309.0,225.0,3.5,0.85,3.136452153284292
1,15,11,1011,1,1,2,1,2269.0,402.0,90.0,8.0,0.85,3.136452153284292
1,16,5,101,1,0,1,0,2368.0,308.0,225.0,3.5,0.75,3.136452153284292
1,17,5,101,0,0,2,1,529.0,358.0,225.0,3.5,0.75,3.136452153284292
1,18,11,1011,1,0,1,0,2320.0,442.0,90.0,8.0,0.85,3.136452153284292
1,19,4,100,1,1,4,1,824.0,576.0,225.0,3.5,0.75,5.6456138759117245
1,20,6,110,1,1,1,1,704.0,548.0,225.0,3.5,0.85,5.6456138759117245
1,21,1,1,0,0,3,1,576.0,944.0,225.0,8.0,0.75,3.136452153284292
1,22,13,1101,0,0,4,1,602.0,404.0,90.0,3.5,0.75,3.136452153284292
1,23,10,1010,0,0,4,1,546.0,333.0,90.0,8.0,0.85,5.6456138759117245
1,24,8,1000,1,1,3,1,646.0,586.0,90.0,8.0,0.75,5.6456138759117245
1,25,3,11,1,0,1,0,1163.0,326.0,225.0,8.0,0.85,3.136452153284292
1,26,13,1101,0,0,1,1,989.0,438.0,90.0,3.5,0.75,3.136452153284292
1,27,14,1110,1,1,1,1,2507.0,388.0,90.0,3.5,0.85,5.6456138759117245
1,28,4,100,1,1,3,1,555.0,467.0,225.0,3.5,0.75,5.6456138759117245
1,29,3,11,0,0,4,1,596.0,1002.0,225.0,8.0,0.85,3.136452153284292
1,30,0,0,0,0,4,1,751.0,378.0,225.0,8.0,0.75,5.6456138759117245
1,31,10,1010,1,1,2,1,779.0,775.0,90.0,8.0,0.85,5.6456138759117245
1,32,6,110,1,1,1,1,1757.0,245.0,225.0,3.5,0.85,5.6456138759117245
1,33,14,1110,0,0,1,1,1407.0,267.0,90.0,3.5,0.85,5.6456138759117245
1,34,8,1000,1,1,1,1,4726.0,342.0,90.0,8.0,0.75,5.6456138759117245
1,35,1,1,0,0,3,1,613.0,349.0,225.0,8.0,0.75,3.136452153284292
1,36,3,11,1,1,3,1,506.0,368.0,225.0,8.0,0.85,3.136452153284292
1,37,10,1010,1,0,1,0,1004.0,268.0,90.0,8.0,0.85,5.6456138759117245
1,38,15,1111,1,1,1,1,1529.0,483.0,90.0,3.5,0.85,3.136452153284292
1,39,3,11,0,0,1,1,530.0,386.0,225.0,8.0,0.85,3.136452153284292
1,40,14,1110,1,1,1,1,3571.0,253.0,90.0,3.5,0.85,5.6456138759117245
1,41,10,1010,0,0,2,1,611.0,870.0,90.0,8.0,0.85,5.6456138759117245
1,42,0,0,0,0,2,1,632.0,825.0,225.0,8.0,0.75,5.6456138759117245
1,43,8,1000,1,1,2,1,677.0,493.0,90.0,8.0,0.75,5.6456138759117245
1,44,8,1000,1,1,3,1,1038.0,784.0,90.0,8.0,0.75,5.6456138759117245
1,45,8,1000,1,1,1,1,1434.0,282.0,90.0,8.0,0.75,5.6456138759117245
1,46,13,1101,1,0,2,0,883.0,1398.0,90.0,3.5,0.75,3.136452153284292
1,47,4,100,0,0,3,1,594.0,1310.0,225.0,3.5,0.75,5.6456138759117245
1,48,0,0,1,1,3,1,1209.0,883.0,225.0,8.0,0.75,5.6456138759117245
1,49,3,11,1,0,1,0,885.0,224.0,225.0,8.0,0.85,3.136452153284292
1,50,8,1000,1,1,2,1,1005.0,1505.0,90.0,8.0,0.75,5.6456138759117245
1,51,9,1001,1,1,1,1,2428.0,524.0,90.0,8.0,0.75,3.136452153284292
1,52,10,1010,1,0,1,0,754.0,976.0,90.0,8.0,0.85,5.6456138759117245
1,53,14,1110,0,0,1,1,1292.0,416.0,90.0,3.5,0.85,5.6456138759117245
1,54,0,0,1,0,1,0,2020.0,329.0,225.0,8.0,0.75,5.6456138759117245
1,55,12,1100,1,0,2,0,1701.0,1183.0,90.0,3.5,0.75,5.6456138759117245
1,56,4,100,0,0,1,1,1521.0,283.0,225.0,3.5,0.75,5.6456138759117245
1,57,5,101,0,1,1,0,1022.0,1585.0,225.0,3.5,0.75,3.136452153284292
1,58,2,10,0,0,2,1,1731.0,638.0,225.0,8.0,0.85,5.6456138759117245
1,59,11,1011,0,0,3,1,1491.0,422.0,90.0,8.0,0.85,3.136452153284292
1,60,4,100,1,1,2,1,1120.0,447.0,225.0,3.5,0.75,5.6456138759117245
1,61,10,1010,0,0,2,1,664.0,963.0,90.0,8.0,0.85,5.6456138759117245
1,62,1,1,0,0,1,1,1062.0,502.0,225.0,8.0,0.75,3.136452153284292
1,63,1,1,1,1,4,1,566.0,497.0,225.0,8.0,0.75,3.136452153284292
1,64,15,1111,0,0,1,1,940.0,1938.0,90.0,3.5,0.85,3.136452153284292
1,65,15,1111,1,0,1,0,2643.0,601.0,90.0,3.5,0.85,3.136452153284292
1,66,14,1110,0,0,1,1,1203.0,367.0,90.0,3.5,0.85,5.6456138759117245
1,67,13,1101,1,1,1,1,545.0,447.0,90.0,3.5,0.75,3.136452153284292
1,68,10,1010,1,1,2,1,891.0,410.0,90.0,8.0,0.85,5.6456138759117245
1,69,9,1001,0,0,3,1,490.0,1064.0,90.0,8.0,0.75,3.136452153284292
1,70,9,1001,0,1,1,0,2338.0,180.0,90.0,8.0,0.75,3.136452153284292
1,71,6,110,1,1,2,1,729.0,489.0,225.0,3.5,0.85,5.6456138759117245
1,72,3,11,1,1,3,1,1002.0,314.0,225.0,8.0,0.85,3.136452153284292
1,73,14,1110,0,0,1,1,1519.0,355.0,90.0,3.5,0.85,5.6456138759117245
1,74,11,1011,0,1,1,0,1914.0,442.0,90.0,8.0,0.85,3.136452153284292
1,75,3,11,0,1,1,0,1209.0,288.0,225.0,8.0,0.85,3.136452153284292
1,76,1,1,0,1,2,0,1095.0,917.0,225.0,8.0,0.75,3.136452153284292
1,77,2,10,1,1,4,1,690.0,445.0,225.0,8.0,0.85,5.6456138759117245
1,78,12,1100,1,1,1,1,2643.0,348.0,90.0,3.5,0.75,5.6456138759117245
1,79,2,10,1,1,3,1,1400.0,677.0,225.0,8.0,0.85,5.6456138759117245
1,80,12,1100,1,0,1,0,2052.0,330.0,90.0,3.5,0.75,5.6456138759117245
1,81,13,1101,0,0,2,1,771.0,308.0,90.0,3.5,0.75,3.136452153284292
1,82,8,1000,1,1,2,1,577.0,832.0,90.0,8.0,0.75,5.6456138759117245
1,83,11,1011,0,0,1,1,609.0,274.0,90.0,8.0,0.85,3.136452153284292
1,84,6,110,0,0,1,1,1704.0,695.0,225.0,3.5,0.85,5.6456138759117245
1,85,0,0,1,1,4,1,491.0,434.0,225.0,8.0,0.75,5.6456138759117245
1,86,6,110,0,0,1,1,1406.0,386.0,225.0,3.5,0.85,5.6456138759117245
1,87,11,1011,1,1,2,1,1785.0,640.0,90.0,8.0,0.85,3.136452153284292
1,88,10,1010,1,1,1,1,846.0,372.0,90.0,8.0,0.85,5.6456138759117245
1,89,2,10,0,0,1,1,832.0,305.0,225.0,8.0,0.85,5.6456138759117245
1,90,10,1010,1,0,2,0,629.0,431.0,90.0,8.0,0.85,5.6456138759117245
1,91,11,1011,1,0,1,0,1003.0,636.0,90.0,8.0,0.85,3.136452153284292
1,92,15,1111,0,0,1,1,1984.0,403.0,90.0,3.5,0.85,3.136452153284292
1,93,0,0,1,1,3,1,792.0,1061.0,225.0,8.0,0.75,5.6456138759117245
1,94,13,1101,1,0,1,0,623.0,319.0,90.0,3.5,0.75,3.136452153284292
1,95,4,100,1,0,1,0,2396.0,229.0,225.0,3.5,0.75,5.6456138759117245
1,96,10,1010,1,0,1,0,710.0,367.0,90.0,8.0,0.85,5.6456138759117245
1,97,9,1001,0,0,1,1,863.0,442.0,90.0,8.0,0.75,3.136452153284292
1,98,2,10,0,0,2,1,2806.0,1227.0,225.0,8.0,0.85,5.6456138759117245
1,99,3,11,1,1,1,1,413.0,328.0,225.0,8.0,0.85,3.136452153284292
1,100,4,100,1,1,2,1,871.0,442.0,225.0,3.5,0.75,5.6456138759117245
1,101,4,100,1,1,3,1,895.0,310.0,225.0,3.5,0.75,5.6456138759117245
1,102,6,110,1,1,3,1,650.0,355.0,225.0,3.5,0.85,5.6456138759117245
1,103,1,1,1,0,1,0,1003.0,429.0,225.0,8.0,0.75,3.136452153284292
1,104,3,11,1,1,1,1,900.0,234.0,225.0,8.0,0.85,3.136452153284292
1,105,3,11,1,0,1,0,2857.0,196.0,225.0,8.0,0.85,3.136452153284292
1,106,13,1101,0,0,2,1,497.0,481.0,90.0,3.5,0.75,3.136452153284292
1,107,1,1,1,1,2,1,1019.0,692.0,225.0,8.0,0.75,3.136452153284292
1,108,11,1011,1,0,1,0,1364.0,209.0,90.0,8.0,0.85,3.136452153284292
1,109,14,1110,0,0,1,1,2019.0,228.0,90.0,3.5,0.85,5.6456138759117245
1,110,5,101,0,0,3,1,1079.0,335.0,225.0,3.5,0.75,3.136452153284292
1,111,8,1000,0,0,3,1,480.0,405.0,90.0,8.0,0.75,5.6456138759117245
1,112,1,1,0,0,2,1,3617.0,1357.0,225.0,8.0,0.75,3.136452153284292
1,113,10,1010,1,0,1,0,2994.0,163.0,90.0,8.0,0.85,5.6456138759117245
1,114,13,1101,1,1,1,1,2162.0,245.0,90.0,3.5,0.75,3.136452153284292
1,115,9,1001,0,1,1,0,1623.0,155.0,90.0,8.0,0.75,3.136452153284292
1,116,6,110,1,1,3,1,1053.0,718.0,225.0,3.5,0.85,5.6456138759117245
1,117,8,1000,0,0,1,1,833.0,582.0,90.0,8.0,0.75,5.6456138759117245
1,118,15,1111,0,0,1,1,1537.0,417.0,90.0,3.5,0.85,3.136452153284292
1,119,12,1100,0,1,1,0,2035.0,167.0,90.0,3.5,0.75,5.6456138759117245
1,120,10,1010,0,0,2,1,657.0,374.0,90.0,8.0,0.85,5.6456138759117245
1,121,10,1010,0,0,2,1,735.0,298.0,90.0,8.0,0.85,5.6456138759117245
1,122,0,0,1,1,3,1,753.0,462.0,225.0,8.0,0.75,5.6456138759117245
1,123,3,11,0,0,2,1,722.0,896.0,225.0,8.0,0.85,3.136452153284292
1,124,9,1001,1,1,1,1,3611.0,410.0,90.0,8.0,0.75,3.136452153284292
1,125,15,1111,1,0,1,0,4275.0,180.0,90.0,3.5,0.85,3.136452153284292
1,126,7,111,1,1,1,1,1535.0,315.0,225.0,3.5,0.85,3.136452153284292
1,127,7,111,0,0,1,1,1704.0,1252.0,225.0,3.5,0.85,3.136452153284292
1,128,0,0,0,0,3,1,631.0,999.0,225.0,8.0,0.75,5.6456138759117245
1,129,3,11,0,1,2,0,1955.0,652.0,225.0,8.0,0.85,3.136452153284292
1,130,15,1111,1,0,1,0,2236.0,298.0,90.0,3.5,0.85,3.136452153284292
1,131,6,110,1,1,3,1,808.0,530.0,225.0,3.5,0.85,5.6456138759117245
1,132,15,1111,1,1,1,1,3089.0,430.0,90.0,3.5,0.85,3.136452153284292
1,133,11,1011,1,0,1,0,1250.0,342.0,90.0,8.0,0.85,3.136452153284292
1,134,3,11,1,0,1,0,1094.0,284.0,225.0,8.0,0.85,3.136452153284292
1,135,1,1,0,1,1,0,3117.0,376.0,225.0,8.0,0.75,3.136452153284292
1,136,11,1011,0,1,1,0,1348.0,307.0,90.0,8.0,0.85,3.136452153284292
1,137,13,1101,1,0,1,0,3351.0,281.0,90.0,3.5,0.75,3.136452153284292
1,138,5,101,0,1,1,0,1328.0,1194.0,225.0,3.5,0.75,3.136452153284292
1,139,6,110,0,0,2,1,768.0,362.0,225.0,3.5,0.85,5.6456138759117245
1,140,1,1,1,1,1,1,699.0,407.0,225.0,8.0,0.75,3.136452153284292
1,141,4,100,1,1,3,1,905.0,629.0,225.0,3.5,0.75,5.6456138759117245
1,142,12,1100,0,0,2,1,669.0,1089.0,90.0,3.5,0.75,5.6456138759117245
1,143,14,1110,1,1,1,1,812.0,295.0,90.0,3.5,0.85,5.6456138759117245
1,144,13,1101,1,1,1,1,627.0,360.0,90.0,3.5,0.75,3.136452153284292
1,145,4,100,1,1,4,1,653.0,529.0,225.0,3.5,0.75,5.6456138759117245
1,146,1,1,1,1,2,1,944.0,839.0,225.0,8.0,0.75,3.136452153284292
1,147,9,1001,1,1,1,1,2496.0,359.0,90.0,8.0,0.75,3.136452153284292
1,148,6,110,1,1,2,1,1022.0,1083.0,225.0,3.5,0.85,5.6456138759117245
1,149,14,1110,0,0,1,1,693.0,408.0,90.0,3.5,0.85,5.6456138759117245
1,150,7,111,0,0,1,1,2372.0,332.0,225.0,3.5,0.85,3.136452153284292
1,151,8,1000,1,1,3,1,458.0,639.0,90.0,8.0,0.75,5.6456138759117245
1,152,15,1111,1,0,1,0,1357.0,243.0,90.0,3.5,0.85,3.136452153284292
1,153,13,1101,0,1,1,0,1069.0,288.0,90.0,3.5,0.75,3.136452153284292
1,154,2,10,1,1,2,1,1317.0,546.0,225.0,8.0,0.85,5.6456138759117245
1,155,0,0,1,1,3,1,435.0,748.0,225.0,8.0,0.75,5.6456138759117245
1,156,4,100,1,1,4,1,452.0,310.0,225.0,3.5,0.75,5.6456138759117245
1,157,1,1,1,1,1,1,1478.0,348.0,225.0,8.0,0.75,3.136452153284292
1,158,15,1111,0,0,1,1,774.0,501.0,90.0,3.5,0.85,3.136452153284292
1,159,1,1,0,0,1,1,819.0,277.0,225.0,8.0,0.75,3.136452153284292
1,160,6,110,0,0,2,1,1467.0,364.0,225.0,3.5,0.85,5.6456138759117245
1,161,9,1001,1,1,2,1,1894.0,633.0,90.0,8.0,0.75,3.136452153284292
1,162,8,1000,1,1,3,1,544.0,432.0,90.0,8.0,0.75,5.6456138759117245
1,163,2,10,0,0,3,1,1139.0,523.0,225.0,8.0,0.85,5.6456138759117245
1,164,10,1010,1,1,1,1,1903.0,158.0,90.0,8.0,0.85,5.6456138759117245
1,165,5,101,1,1,2,1,963.0,428.0,225.0,3.5,0.75,3.136452153284292
1,166,0,0,1,1,1,1,1339.0,111.0,225.0,8.0,0.75,5.6456138759117245
1,167,3,11,0,0,2,1,697.0,558.0,225.0,8.0,0.85,3.136452153284292
1,168,7,111,1,1,1,1,1243.0,110.0,225.0,3.5,0.85,3.136452153284292
1,169,2,10,0,0,2,1,650.0,982.0,225.0,8.0,0.85,5.6456138759117245
1,170,4,100,1,1,2,1,993.0,524.0,225.0,3.5,0.75,5.6456138759117245
1,171,8,1000,1,0,1,0,1987.0,221.0,90.0,8.0,0.75,5.6456138759117245
1,172,6,110,1,1,1,1,1665.0,313.0,225.0,3.5,0.85,5.6456138759117245
1,173,3,11,1,1,2,1,667.0,539.0,225.0,8.0,0.85,3.136452153284292
1,174,13,1101,1,1,1,1,2236.0,403.0,90.0,3.5,0.75,3.136452153284292
1,175,3,11,0,0,3,1,455.0,515.0,225.0,8.0,0.85,3.136452153284292
1,176,4,100,1,1,1,1,1820.0,229.0,225.0,3.5,0.75,5.6456138759117245
1,177,10,1010,0,0,1,1,1702.0,321.0,90.0,8.0,0.85,5.6456138759117245
1,178,3,11,0,0,2,1,1369.0,519.0,225.0,8.0,0.85,3.136452153284292
1,179,8,1000,1,1,3,1,840.0,434.0,90.0,8.0,0.75,5.6456138759117245
1,180,10,1010,0,0,2,1,559.0,741.0,90.0,8.0,0.85,5.6456138759117245
1,181,0,0,0,0,3,1,1584.0,762.0,225.0,8.0,0.75,5.6456138759117245
1,182,7,111,0,0,1,1,1375.0,610.0,225.0,3.5,0.85,3.136452153284292
1,183,12,1100,0,0,1,1,2350.0,174.0,90.0,3.5,0.75,5.6456138759117245
1,184,5,101,1,1,2,1,1190.0,417.0,225.0,3.5,0.75,3.136452153284292
1,185,6,110,0,0,2,1,2330.0,1950.0,225.0,3.5,0.85,5.6456138759117245
1,186,12,1100,1,1,2,1,523.0,793.0,90.0,3.5,0.75,5.6456138759117245
1,187,12,1100,0,0,3,1,626.0,813.0,90.0,3.5,0.75,5.6456138759117245
1,188,15,1111,1,1,2,1,1230.0,445.0,90.0,3.5,0.85,3.136452153284292
1,189,2,10,0,0,1,1,747.0,883.0,225.0,8.0,0.85,5.6456138759117245
1,190,2,10,1,1,3,1,884.0,1671.0,225.0,8.0,0.85,5.6456138759117245
1,191,5,101,1,1,4,1,1184.0,445.0,225.0,3.5,0.75,3.136452153284292
1,192,2,10,0,0,2,1,695.0,675.0,225.0,8.0,0.85,5.6456138759117245
1,193,6,110,1,1,1,1,2667.0,404.0,225.0,3.5,0.85,5.6456138759117245
1,194,15,1111,1,1,3,1,1118.0,498.0,90.0,3.5,0.85,3.136452153284292
1,195,10,1010,1,0,1,0,958.0,303.0,90.0,8.0,0.85,5.6456138759117245
1,196,2,10,0,0,2,1,515.0,617.0,225.0,8.0,0.85,5.6456138759117245
1,197,0,0,0,0,3,1,746.0,1290.0,225.0,8.0,0.75,5.6456138759117245
1,198,14,1110,1,0,1,0,3248.0,217.0,90.0,3.5,0.85,5.6456138759117245
1,199,6,110,1,1,2,1,725.0,413.0,225.0,3.5,0.85,5.6456138759117245
1,200,1,1,1,1,1,1,1599.0,262.0,225.0,8.0,0.75,3.136452153284292
1,201,9,1001,1,0,1,0,866.0,435.0,90.0,8.0,0.75,3.136452153284292
1,202,11,1011,0,0,1,1,534.0,704.0,90.0,8.0,0.85,3.136452153284292
1,203,1,1,1,0,1,0,1756.0,223.0,225.0,8.0,0.75,3.136452153284292
1,204,5,101,0,0,2,1,592.0,628.0,225.0,3.5,0.75,3.136452153284292
1,205,4,100,1,0,2,0,630.0,561.0,225.0,3.5,0.75,5.6456138759117245
1,206,0,0,1,0,1,0,1761.0,197.0,225.0,8.0,0.75,5.6456138759117245
1,207,2,10,0,0,3,1,508.0,325.0,225.0,8.0,0.85,5.6456138759117245
1,208,6,110,1,1,1,1,706.0,306.0,225.0,3.5,0.85,5.6456138759117245
1,209,5,101,1,0,1,0,1646.0,372.0,225.0,3.5,0.75,3.136452153284292
1,210,10,1010,1,1,1,1,1394.0,228.0,90.0,8.0,0.85,5.6456138759117245
1,211,3,11,0,0,2,1,574.0,372.0,225.0,8.0,0.85,3.136452153284292
1,212,14,1110,1,1,1,1,1483.0,309.0,90.0,3.5,0.85,5.6456138759117245
1,213,6,110,0,0,4,1,760.0,515.0,225.0,3.5,0.85,5.6456138759117245
1,214,13,1101,0,0,1,1,3832.0,541.0,90.0,3.5,0.75,3.136452153284292
1,215,14,1110,1,1,2,1,617.0,1015.0,90.0,3.5,0.85,5.6456138759117245
1,216,8,1000,0,0,3,1,524.0,1514.0,90.0,8.0,0.75,5.6456138759117245
1,217,13,1101,0,0,2,1,1291.0,736.0,90.0,3.5,0.75,3.136452153284292
1,218,11,1011,1,1,3,1,660.0,1063.0,90.0,8.0,0.85,3.136452153284292
1,219,3,11,0,0,2,1,645.0,383.0,225.0,8.0,0.85,3.136452153284292
1,220,10,1010,1,1,1,1,928.0,350.0,90.0,8.0,0.85,5.6456138759117245
1,221,11,1011,0,0,2,1,626.0,728.0,90.0,8.0,0.85,3.136452153284292
1,222,13,1101,1,1,1,1,1260.0,242.0,90.0,3.5,0.75,3.136452153284292
1,223,12,1100,0,0,1,1,695.0,687.0,90.0,3.5,0.75,5.6456138759117245
1,224,9,1001,1,1,2,1,689.0,602.0,90.0,8.0,0.75,3.136452153284292
1,225,2,10,0,0,1,1,735.0,721.0,225.0,8.0,0.85,5.6456138759117245
1,226,10,1010,0,0,2,1,797.0,873.0,90.0,8.0,0.85,5.6456138759117245
1,227,7,111,1,1,1,1,992.0,486.0,225.0,3.5,0.85,3.136452153284292
1,228,9,1001,0,1,1,0,2952.0,477.0,90.0,8.0,0.75,3.136452153284292
1,229,7,111,0,0,1,1,2452.0,371.0,225.0,3.5,0.85,3.136452153284292
1,230,1,1,1,1,2,1,602.0,295.0,225.0,8.0,0.75,3.136452153284292
1,231,12,1100,1,1,1,1,7493.0,150.0,90.0,3.5,0.75,5.6456138759117245
1,232,13,1101,0,0,1,1,645.0,571.0,90.0,3.5,0.75,3.136452153284292
1,233,0,0,0,0,2,1,502.0,810.0,225.0,8.0,0.75,5.6456138759117245
1,234,8,1000,1,1,2,1,463.0,527.0,90.0,8.0,0.75,5.6456138759117245
1,235,14,1110,1,1,1,1,1210.0,223.0,90.0,3.5,0.85,5.6456138759117245
1,236,2,10,0,0,3,1,524.0,515.0,225.0,8.0,0.85,5.6456138759117245
1,237,14,1110,1,0,2,0,2206.0,360.0,90.0,3.5,0.85,5.6456138759117245
1,238,14,1110,0,0,1,1,1667.0,155.0,90.0,3.5,0.85,5.6456138759117245
1,239,6,110,0,0,1,1,1496.0,365.0,225.0,3.5,0.85,5.6456138759117245
1,240,7,111,0,1,2,0,616.0,559.0,225.0,3.5,0.85,3.136452153284292
1,241,1,1,1,1,1,1,1097.0,255.0,225.0,8.0,0.75,3.136452153284292
1,242,0,0,1,1,2,1,744.0,323.0,225.0,8.0,0.75,5.6456138759117245
1,243,2,10,1,1,1,1,935.0,276.0,225.0,8.0,0.85,5.6456138759117245
1,244,7,111,0,0,1,1,994.0,372.0,225.0,3.5,0.85,3.136452153284292
1,245,0,0,0,0,2,1,1804.0,792.0,225.0,8.0,0.75,5.6456138759117245
1,246,9,1001,0,0,1,1,2560.0,437.0,90.0,8.0,0.75,3.136452153284292
1,247,14,1110,1,1,1,1,1227.0,184.0,90.0,3.5,0.85,5.6456138759117245
1,248,1,1,1,1,1,1,3156.0,230.0,225.0,8.0,0.75,3.136452153284292
1,249,7,111,0,1,1,0,2280.0,186.0,225.0,3.5,0.85,3.136452153284292
1,250,15,1111,1,0,1,0,2421.0,136.0,90.0,3.5,0.85,3.136452153284292
1,251,3,11,0,0,1,1,1935.0,210.0,225.0,8.0,0.85,3.136452153284292
1,252,10,1010,0,0,2,1,842.0,1695.0,90.0,8.0,0.85,5.6456138759117245
1,253,1,1,1,1,1,1,587.0,301.0,225.0,8.0,0.75,3.136452153284292
1,254,10,1010,1,0,1,0,1753.0,431.0,90.0,8.0,0.85,5.6456138759117245
1,255,9,1001,1,1,1,1,2129.0,180.0,90.0,8.0,0.75,3.136452153284292
1,256,9,1001,1,0,1,0,1416.0,318.0,90.0,8.0,0.75,3.136452153284292
1,257,11,1011,1,1,1,1,832.0,184.0,90.0,8.0,0.85,3.136452153284292
1,258,7,111,1,0,1,0,1315.0,189.0,225.0,3.5,0.85,3.136452153284292
1,259,12,1100,0,0,1,1,1263.0,297.0,90.0,3.5,0.75,5.6456138759117245
1,260,13,1101,1,1,1,1,1627.0,334.0,90.0,3.5,0.75,3.136452153284292
1,261,13,1101,0,0,1,1,782.0,438.0,90.0,3.5,0.75,3.136452153284292
1,262,14,1110,1,1,1,1,412.0,302.0,90.0,3.5,0.85,5.6456138759117245
1,263,5,101,0,0,1,1,1639.0,356.0,225.0,3.5,0.75,3.136452153284292
1,264,15,1111,1,0,1,0,1435.0,296.0,90.0,3.5,0.85,3.136452153284292
1,265,15,1111,1,1,1,1,925.0,331.0,90.0,3.5,0.85,3.136452153284292
1,266,13,1101,1,1,1,1,2023.0,116.0,90.0,3.5,0.75,3.136452153284292
1,267,1,1,0,0,2,1,1002.0,422.0,225.0,8.0,0.75,3.136452153284292
1,268,2,10,0,0,1,1,1586.0,266.0,225.0,8.0,0.85,5.6456138759117245
1,269,8,1000,0,0,1,1,5811.0,512.0,90.0,8.0,0.75,5.6456138759117245
1,270,5,101,1,1,1,1,731.0,298.0,225.0,3.5,0.75,3.136452153284292
1,271,1,1,0,0,1,1,1515.0,377.0,225.0,8.0,0.75,3.136452153284292
1,272,6,110,1,1,1,1,3349.0,115.0,225.0,3.5,0.85,5.6456138759117245
1,273,0,0,0,0,3,1,487.0,634.0,225.0,8.0,0.75,5.6456138759117245
1,274,3,11,0,0,1,1,2429.0,140.0,225.0,8.0,0.85,3.136452153284292
1,275,14,1110,0,0,1,1,3356.0,125.0,90.0,3.5,0.85,5.6456138759117245
1,276,0,0,1,1,4,1,565.0,330.0,225.0,8.0,0.75,5.6456138759117245
1,277,4,100,0,0,1,1,2348.0,307.0,225.0,3.5,0.75,5.6456138759117245
1,278,3,11,1,1,2,1,720.0,306.0,225.0,8.0,0.85,3.136452153284292
1,279,7,111,0,1,1,0,1932.0,235.0,225.0,3.5,0.85,3.136452153284292
1,280,12,1100,1,0,1,0,628.0,227.0,90.0,3.5,0.75,5.6456138759117245
1,281,1,1,0,0,1,1,758.0,422.0,225.0,8.0,0.75,3.136452153284292
1,282,13,1101,0,1,2,0,666.0,666.0,90.0,3.5,0.75,3.136452153284292
1,283,1,1,0,1,1,0,681.0,347.0,225.0,8.0,0.75,3.136452153284292
1,284,4,100,0,0,2,1,674.0,909.0,225.0,3.5,0.75,5.6456138759117245
1,285,0,0,1,1,3,1,657.0,694.0,225.0,8.0,0.75,5.6456138759117245
1,286,9,1001,0,0,1,1,537.0,248.0,90.0,8.0,0.75,3.136452153284292
1,287,11,1011,1,1,1,1,2832.0,106.0,90.0,8.0,0.85,3.136452153284292
1,288,11,1011,0,0,2,1,1077.0,246.0,90.0,8.0,0.85,3.136452153284292
1,289,3,11,1,0,1,0,4066.0,158.0,225.0,8.0,0.85,3.136452153284292
1,290,6,110,0,0,2,1,1094.0,333.0,225.0,3.5,0.85,5.6456138759117245
1,291,5,101,0,1,1,0,671.0,483.0,225.0,3.5,0.75,3.136452153284292
1,292,4,100,0,0,1,1,476.0,354.0,225.0,3.5,0.75,5.6456138759117245
1,293,3,11,1,1,1,1,768.0,1696.0,225.0,8.0,0.85,3.136452153284292
1,294,15,1111,0,1,1,0,2720.0,192.0,90.0,3.5,0.85,3.136452153284292
1,295,11,1011,1,1,1,1,1329.0,372.0,90.0,8.0,0.85,3.136452153284292
1,296,10,1010,0,0,2,1,594.0,984.0,90.0,8.0,0.85,5.6456138759117245
1,297,15,1111,1,1,1,1,2587.0,249.0,90.0,3.5,0.85,3.136452153284292
1,298,8,1000,1,1,2,1,1757.0,300.0,90.0,8.0,0.75,5.6456138759117245
1,299,11,1011,0,0,1,1,491.0,665.0,90.0,8.0,0.85,3.136452153284292
1,300,12,1100,0,0,1,1,714.0,522.0,90.0,3.5,0.75,5.6456138759117245
1,301,5,101,1,1,1,1,1570.0,372.0,225.0,3.5,0.75,3.136452153284292
1,302,15,1111,1,0,2,0,521.0,428.0,90.0,3.5,0.85,3.136452153284292
1,303,9,1001,0,0,1,1,586.0,1055.0,90.0,8.0,0.75,3.136452153284292
1,304,15,1111,0,0,1,1,1270.0,317.0,90.0,3.5,0.85,3.136452153284292
1,305,5,101,0,1,1,0,1646.0,285.0,225.0,3.5,0.75,3.136452153284292
1,306,6,110,1,1,1,1,807.0,321.0,225.0,3.5,0.85,5.6456138759117245
1,307,8,1000,1,0,1,0,1222.0,404.0,90.0,8.0,0.75,5.6456138759117245
1,308,8,1000,0,0,1,1,623.0,261.0,90.0,8.0,0.75,5.6456138759117245
1,309,7,111,1,1,1,1,1984.0,1069.0,225.0,3.5,0.85,3.136452153284292
1,310,1,1,0,0,1,1,3026.0,323.0,225.0,8.0,0.75,3.136452153284292
1,311,7,111,0,1,1,0,2031.0,600.0,225.0,3.5,0.85,3.136452153284292
1,312,7,111,1,0,1,0,589.0,308.0,225.0,3.5,0.85,3.136452153284292
1,313,12,1100,1,0,1,0,833.0,303.0,90.0,3.5,0.75,5.6456138759117245
1,314,10,1010,0,0,2,1,653.0,280.0,90.0,8.0,0.85,5.6456138759117245
1,315,13,1101,0,0,1,1,2588.0,454.0,90.0,3.5,0.75,3.136452153284292
1,316,9,1001,0,1,1,0,788.0,557.0,90.0,8.0,0.75,3.136452153284292
1,317,3,11,0,1,1,0,2466.0,225.0,225.0,8.0,0.85,3.136452153284292
1,318,1,1,0,0,1,1,1345.0,237.0,225.0,8.0,0.75,3.136452153284292
1,319,8,1000,0,1,1,0,1573.0,364.0,90.0,8.0,0.75,5.6456138759117245
1,320,11,1011,0,1,1,0,1346.0,260.0,90.0,8.0,0.85,3.136452153284292
1,321,0,0,0,0,2,1,931.0,201.0,225.0,8.0,0.75,5.6456138759117245
1,322,12,1100,0,0,2,1,621.0,456.0,90.0,3.5,0.75,5.6456138759117245
1,323,12,1100,0,0,1,1,1163.0,136.0,90.0,3.5,0.75,5.6456138759117245
1,324,3,11,0,0,1,1,1802.0,147.0,225.0,8.0,0.85,3.136452153284292
1,325,1,1,0,1,1,0,818.0,195.0,225.0,8.0,0.75,3.136452153284292
1,326,3,11,0,0,1,1,1504.0,213.0,225.0,8.0,0.85,3.136452153284292
1,327,0,0,1,1,3,1,544.0,308.0,225.0,8.0,0.75,5.6456138759117245
1,328,6,110,1,1,1,1,1971.0,358.0,225.0,3.5,0.85,5.6456138759117245
1,329,12,1100,0,0,2,1,477.0,462.0,90.0,3.5,0.75,5.6456138759117245
1,330,14,1110,0,0,1,1,1324.0,168.0,90.0,3.5,0.85,5.6456138759117245
1,331,12,1100,0,0,2,1,425.0,351.0,90.0,3.5,0.75,5.6456138759117245
1,332,5,101,1,1,1,1,563.0,203.0,225.0,3.5,0.75,3.136452153284292
1,333,6,110,0,0,2,1,495.0,582.0,225.0,3.5,0.85,5.6456138759117245
1,334,10,1010,1,1,2,1,603.0,400.0,90.0,8.0,0.85,5.6456138759117245
1,335,15,1111,1,1,1,1,1165.0,143.0,90.0,3.5,0.85,3.136452153284292
1,336,3,11,0,0,1,1,1236.0,1270.0,225.0,8.0,0.85,3.136452153284292
1,337,1,1,0,0,1,1,1808.0,160.0,225.0,8.0,0.75,3.136452153284292
1,338,4,100,0,0,2,1,1757.0,547.0,225.0,3.5,0.75,5.6456138759117245
1,339,11,1011,1,1,1,1,682.0,664.0,90.0,8.0,0.85,3.136452153284292
1,340,8,1000,0,0,2,1,403.0,413.0,90.0,8.0,0.75,5.6456138759117245
1,341,7,111,1,0,1,0,2474.0,279.0,225.0,3.5,0.85,3.136452153284292
1,342,9,1001,0,0,2,1,1906.0,930.0,90.0,8.0,0.75,3.136452153284292
1,343,7,111,0,1,1,0,3484.0,232.0,225.0,3.5,0.85,3.136452153284292
1,344,13,1101,0,0,1,1,783.0,718.0,90.0,3.5,0.75,3.136452153284292
1,345,11,1011,1,0,1,0,1793.0,144.0,90.0,8.0,0.85,3.136452153284292
1,346,2,10,1,0,1,0,2253.0,169.0,225.0,8.0,0.85,5.6456138759117245
1,347,11,1011,0,0,1,1,2266.0,246.0,90.0,8.0,0.85,3.136452153284292
1,348,7,111,0,0,3,1,1097.0,271.0,225.0,3.5,0.85,3.136452153284292
1,349,10,1010,0,0,1,1,1832.0,695.0,90.0,8.0,0.85,5.6456138759117245
1,350,14,1110,0,0,2,1,849.0,291.0,90.0,3.5,0.85,5.6456138759117245
1,351,9,1001,1,1,1,1,850.0,722.0,90.0,8.0,0.75,3.136452153284292
1,352,12,1100,1,1,2,1,725.0,283.0,90.0,3.5,0.75,5.6456138759117245
1,353,4,100,0,0,3,1,753.0,1427.0,225.0,3.5,0.75,5.6456138759117245
1,354,9,1001,0,0,1,1,1847.0,388.0,90.0,8.0,0.75,3.136452153284292
1,355,1,1,1,1,2,1,987.0,369.0,225.0,8.0,0.75,3.136452153284292
1,356,0,0,1,1,1,1,794.0,164.0,225.0,8.0,0.75,5.6456138759117245
1,357,5,101,0,0,1,1,433.0,611.0,225.0,3.5,0.75,3.136452153284292
1,358,10,1010,1,1,2,1,696.0,252.0,90.0,8.0,0.85,5.6456138759117245
1,359,7,111,1,1,1,1,857.0,683.0,225.0,3.5,0.85,3.136452153284292
1,360,5,101,1,1,1,1,1730.0,388.0,225.0,3.5,0.75,3.136452153284292
1,361,10,1010,0,0,2,1,534.0,370.0,90.0,8.0,0.85,5.6456138759117245
1,362,3,11,1,1,3,1,699.0,562.0,225.0,8.0,0.85,3.136452153284292
1,363,14,1110,1,0,1,0,805.0,258.0,90.0,3.5,0.85,5.6456138759117245
1,364,10,1010,0,0,2,1,549.0,598.0,90.0,8.0,0.85,5.6456138759117245
1,365,5,101,1,1,3,1,727.0,243.0,225.0,3.5,0.75,3.136452153284292
1,366,6,110,0,0,2,1,556.0,379.0,225.0,3.5,0.85,5.6456138759117245
1,367,1,1,1,1,1,1,486.0,657.0,225.0,8.0,0.75,3.136452153284292
1,368,5,101,1,1,2,1,635.0,313.0,225.0,3.5,0.75,3.136452153284292
1,369,8,1000,0,0,3,1,525.0,362.0,90.0,8.0,0.75,5.6456138759117245
1,370,4,100,1,1,4,1,497.0,293.0,225.0,3.5,0.75,5.6456138759117245
1,371,7,111,1,0,2,0,603.0,427.0,225.0,3.5,0.85,3.136452153284292
1,372,4,100,0,0,1,1,873.0,375.0,225.0,3.5,0.75,5.6456138759117245
1,373,2,10,1,1,2,1,964.0,1200.0,225.0,8.0,0.85,5.6456138759117245
1,374,8,1000,1,1,3,1,2572.0,600.0,90.0,8.0,0.75,5.6456138759117245
1,375,15,1111,0,0,3,1,478.0,1023.0,90.0,3.5,0.85,3.136452153284292
1,376,5,101,0,0,1,1,2549.0,778.0,225.0,3.5,0.75,3.136452153284292
1,377,7,111,1,1,1,1,573.0,832.0,225.0,3.5,0.85,3.136452153284292
1,378,9,1001,1,1,1,1,2656.0,449.0,90.0,8.0,0.75,3.136452153284292
1,379,8,1000,0,0,2,1,420.0,430.0,90.0,8.0,0.75,5.6456138759117245
1,380,13,1101,1,1,2,1,631.0,473.0,90.0,3.5,0.75,3.136452153284292
1,381,12,1100,0,0,3,1,605.0,1217.0,90.0,3.5,0.75,5.6456138759117245
1,382,6,110,0,0,3,1,571.0,654.0,225.0,3.5,0.85,5.6456138759117245
1,383,11,1011,0,0,2,1,941.0,374.0,90.0,8.0,0.85,3.136452153284292
1,384,4,100,0,0,1,1,1306.0,559.0,225.0,3.5,0.75,5.6456138759117245
1,385,2,10,0,0,3,1,1940.0,543.0,225.0,8.0,0.85,5.6456138759117245
1,386,15,1111,1,1,2,1,1097.0,486.0,90.0,3.5,0.85,3.136452153284292
1,387,4,100,0,0,2,1,866.0,812.0,225.0,3.5,0.75,5.6456138759117245
1,388,10,1010,1,1,1,1,1579.0,214.0,90.0,8.0,0.85,5.6456138759117245
1,389,3,11,0,0,1,1,788.0,429.0,225.0,8.0,0.85,3.136452153284292
1,390,5,101,0,0,1,1,2055.0,286.0,225.0,3.5,0.75,3.136452153284292
1,391,12,1100,1,1,1,1,1805.0,255.0,90.0,3.5,0.75,5.6456138759117245
1,392,3,11,1,0,2,0,909.0,1555.0,225.0,8.0,0.85,3.136452153284292
1,393,3,11,1,0,1,0,1099.0,146.0,225.0,8.0,0.85,3.136452153284292
1,394,12,1100,0,0,1,1,632.0,188.0,90.0,3.5,0.75,5.6456138759117245
1,395,8,1000,0,0,1,1,941.0,212.0,90.0,8.0,0.75,5.6456138759117245
1,396,0,0,1,1,2,1,418.0,279.0,225.0,8.0,0.75,5.6456138759117245
1,397,5,101,1,1,1,1,1037.0,517.0,225.0,3.5,0.75,3.136452153284292
1,398,5,101,1,0,1,0,1542.0,186.0,225.0,3.5,0.75,3.136452153284292
1,399,4,100,1,0,1,0,1429.0,259.0,225.0,3.5,0.75,5.6456138759117245
1,400,3,11,0,0,1,1,704.0,696.0,225.0,8.0,0.85,3.136452153284292
1,401,2,10,1,1,2,1,919.0,586.0,225.0,8.0,0.85,5.6456138759117245
1,402,5,101,0,0,1,1,463.0,652.0,225.0,3.5,0.75,3.136452153284292
1,403,14,1110,1,1,1,1,2381.0,538.0,90.0,3.5,0.85,5.6456138759117245
1,404,6,110,1,1,3,1,762.0,368.0,225.0,3.5,0.85,5.6456138759117245
1,405,13,1101,1,0,2,0,802.0,318.0,90.0,3.5,0.75,3.136452153284292
1,406,2,10,0,0,3,1,583.0,804.0,225.0,8.0,0.85,5.6456138759117245
1,407,2,10,0,0,2,1,919.0,386.0,225.0,8.0,0.85,5.6456138759117245
1,408,14,1110,0,0,1,1,1403.0,159.0,90.0,3.5,0.85,5.6456138759117245
1,409,6,110,1,1,4,1,534.0,346.0,225.0,3.5,0.85,5.6456138759117245
1,410,4,100,0,0,4,1,919.0,313.0,225.0,3.5,0.75,5.6456138759117245
1,411,8,1000,0,0,2,1,797.0,502.0,90.0,8.0,0.75,5.6456138759117245
1,412,0,0,0,0,1,1,1279.0,145.0,225.0,8.0,0.75,5.6456138759117245
1,413,4,100,0,0,1,1,2213.0,299.0,225.0,3.5,0.75,5.6456138759117245
1,414,10,1010,1,1,3,1,521.0,413.0,90.0,8.0,0.85,5.6456138759117245
1,415,2,10,0,0,2,1,510.0,340.0,225.0,8.0,0.85,5.6456138759117245
1,416,4,100,0,0,2,1,2152.0,752.0,225.0,3.5,0.75,5.6456138759117245
1,417,7,111,1,1,1,1,3317.0,361.0,225.0,3.5,0.85,3.136452153284292
1,418,13,1101,1,0,1,0,4825.0,511.0,90.0,3.5,0.75,3.136452153284292
1,419,11,1011,1,0,1,0,3351.0,305.0,90.0,8.0,0.85,3.136452153284292
1,420,9,1001,0,0,2,1,487.0,225.0,90.0,8.0,0.75,3.136452153284292
1,421,8,1000,1,1,1,1,655.0,205.0,90.0,8.0,0.75,5.6456138759117245
1,422,5,101,0,0,1,1,1651.0,183.0,225.0,3.5,0.75,3.136452153284292
1,423,3,11,0,0,1,1,523.0,407.0,225.0,8.0,0.85,3.136452153284292
1,424,11,1011,1,1,2,1,601.0,1969.0,90.0,8.0,0.85,3.136452153284292
1,425,15,1111,1,0,1,0,499.0,227.0,90.0,3.5,0.85,3.136452153284292
1,426,0,0,1,1,2,1,493.0,292.0,225.0,8.0,0.75,5.6456138759117245
1,427,3,11,0,0,2,1,863.0,450.0,225.0,8.0,0.85,3.136452153284292
1,428,6,110,0,0,1,1,1222.0,160.0,225.0,3.5,0.85,5.6456138759117245
1,429,9,1001,0,0,1,1,2159.0,321.0,90.0,8.0,0.75,3.136452153284292
1,430,2,10,0,0,3,1,990.0,340.0,225.0,8.0,0.85,5.6456138759117245
1,431,13,1101,0,1,1,0,874.0,279.0,90.0,3.5,0.75,3.136452153284292
1,432,6,110,1,1,2,1,492.0,829.0,225.0,3.5,0.85,5.6456138759117245
1,433,1,1,0,0,1,1,909.0,1100.0,225.0,8.0,0.75,3.136452153284292
1,434,15,1111,0,1,1,0,1196.0,260.0,90.0,3.5,0.85,3.136452153284292
1,435,7,111,0,0,1,1,2394.0,457.0,225.0,3.5,0.85,3.136452153284292
1,436,14,1110,0,0,1,1,1396.0,161.0,90.0,3.5,0.85,5.6456138759117245
1,437,8,1000,0,0,1,1,3432.0,330.0,90.0,8.0,0.75,5.6456138759117245
1,438,0,0,1,1,2,1,630.0,260.0,225.0,8.0,0.75,5.6456138759117245
1,439,9,1001,1,1,2,1,2484.0,494.0,90.0,8.0,0.75,3.136452153284292
1,440,2,10,1,1,1,1,2329.0,360.0,225.0,8.0,0.85,5.6456138759117245
1,441,0,0,0,0,3,1,1848.0,641.0,225.0,8.0,0.75,5.6456138759117245
1,442,11,1011,1,1,2,1,662.0,650.0,90.0,8.0,0.85,3.136452153284292
1,443,9,1001,1,0,1,0,830.0,190.0,90.0,8.0,0.75,3.136452153284292
1,444,9,1001,1,1,1,1,1736.0,295.0,90.0,8.0,0.75,3.136452153284292
1,445,1,1,0,0,2,1,1279.0,511.0,225.0,8.0,0.75,3.136452153284292
1,446,9,1001,1,1,1,1,1779.0,252.0,90.0,8.0,0.75,3.136452153284292
1,447,12,1100,0,0,2,1,1902.0,574.0,90.0,3.5,0.75,5.6456138759117245
1,448,12,1100,1,1,1,1,1454.0,260.0,90.0,3.5,0.75,5.6456138759117245
1,449,6,110,1,1,1,1,4853.0,674.0,225.0,3.5,0.85,5.6456138759117245
1,450,4,100,1,0,1,0,1188.0,133.0,225.0,3.5,0.75,5.6456138759117245
1,451,1,1,1,1,1,1,2246.0,101.0,225.0,8.0,0.75,3.136452153284292
1,452,8,1000,0,0,2,1,578.0,185.0,90.0,8.0,0.75,5.6456138759117245
1,453,0,0,0,0,1,1,1428.0,319.0,225.0,8.0,0.75,5.6456138759117245
1,454,2,10,1,1,2,1,500.0,837.0,225.0,8.0,0.85,5.6456138759117245
1,455,8,1000,1,1,1,1,536.0,243.0,90.0,8.0,0.75,5.6456138759117245
1,456,5,101,0,0,1,1,607.0,752.0,225.0,3.5,0.75,3.136452153284292
1,457,12,1100,1,1,2,1,592.0,742.0,90.0,3.5,0.75,5.6456138759117245
1,458,1,1,1,0,1,0,1175.0,220.0,225.0,8.0,0.75,3.136452153284292
1,459,13,1101,1,1,1,1,1223.0,905.0,90.0,3.5,0.75,3.136452153284292
1,460,8,1000,1,1,1,1,1498.0,144.0,90.0,8.0,0.75,5.6456138759117245
1,461,11,1011,0,0,2,1,551.0,1495.0,90.0,8.0,0.85,3.136452153284292
1,462,1,1,1,1,2,1,624.0,590.0,225.0,8.0,0.75,3.136452153284292
1,463,2,10,1,1,1,1,990.0,153.0,225.0,8.0,0.85,5.6456138759117245
1,464,11,1011,1,0,1,0,819.0,190.0,90.0,8.0,0.85,3.136452153284292
1,465,8,1000,0,0,1,1,1108.0,149.0,90.0,8.0,0.75,5.6456138759117245
1,466,7,111,1,1,1,1,3705.0,149.0,225.0,3.5,0.85,3.136452153284292
1,467,0,0,0,0,3,1,605.0,472.0,225.0,8.0,0.75,5.6456138759117245
1,468,15,1111,0,0,1,1,1223.0,131.0,90.0,3.5,0.85,3.136452153284292
1,469,14,1110,0,0,1,1,706.0,417.0,90.0,3.5,0.85,5.6456138759117245
1,470,8,1000,1,1,4,1,993.0,801.0,90.0,8.0,0.75,5.6456138759117245
1,471,14,1110,1,1,2,1,1190.0,947.0,90.0,3.5,0.85,5.6456138759117245
1,472,13,1101,1,0,1,0,1339.0,284.0,90.0,3.5,0.75,3.136452153284292
1,473,2,10,1,1,1,1,1697.0,125.0,225.0,8.0,0.85,5.6456138759117245
1,474,5,101,1,1,1,1,1282.0,203.0,225.0,3.5,0.75,3.136452153284292
1,475,15,1111,0,0,1,1,1164.0,129.0,90.0,3.5,0.85,3.136452153284292
1,476,10,1010,0,0,2,1,667.0,494.0,90.0,8.0,0.85,5.6456138759117245
1,477,9,1001,1,1,1,1,2467.0,617.0,90.0,8.0,0.75,3.136452153284292
1,478,13,1101,1,0,2,0,530.0,885.0,90.0,3.5,0.75,3.136452153284292
1,479,7,111,1,0,1,0,770.0,248.0,225.0,3.5,0.85,3.136452153284292
1,480,8,1000,0,0,3,1,625.0,1065.0,90.0,8.0,0.75,5.6456138759117245
1,481,15,1111,1,0,1,0,1325.0,192.0,90.0,3.5,0.85,3.136452153284292
1,482,12,1100,1,1,1,1,1708.0,956.0,90.0,3.5,0.75,5.6456138759117245
1,483,15,1111,0,0,2,1,448.0,1004.0,90.0,3.5,0.85,3.136452153284292
1,484,3,11,1,0,1,0,1417.0,158.0,225.0,8.0,0.85,3.136452153284292
1,485,4,100,0,0,1,1,1450.0,114.0,225.0,3.5,0.75,5.6456138759117245
1,486,14,1110,1,1,1,1,861.0,227.0,90.0,3.5,0.85,5.6456138759117245
1,487,1,1,0,0,3,1,497.0,268.0,225.0,8.0,0.75,3.136452153284292
1,488,13,1101,1,1,1,1,740.0,319.0,90.0,3.5,0.75,3.136452153284292
1,489,0,0,1,1,3,1,869.0,445.0,225.0,8.0,0.75,5.6456138759117245
1,490,14,1110,1,0,1,0,582.0,398.0,90.0,3.5,0.85,5.6456138759117245
1,491,14,1110,1,0,1,0,7595.0,163.0,90.0,3.5,0.85,5.6456138759117245
1,492,13,1101,0,0,2,1,683.0,473.0,90.0,3.5,0.75,3.136452153284292
1,493,13,1101,0,0,2,1,507.0,324.0,90.0,3.5,0.75,3.136452153284292
1,494,4,100,1,1,1,1,521.0,363.0,225.0,3.5,0.75,5.6456138759117245
1,495,15,1111,1,0,1,0,2668.0,147.0,90.0,3.5,0.85,3.136452153284292
1,496,4,100,1,1,1,1,955.0,137.0,225.0,3.5,0.75,5.6456138759117245
1,497,13,1101,1,0,1,0,635.0,264.0,90.0,3.5,0.75,3.136452153284292
1,498,5,101,1,1,1,1,1285.0,139.0,225.0,3.5,0.75,3.136452153284292
1,499,6,110,0,0,1,1,863.0,174.0,225.0,3.5,0.85,5.6456138759117245
1,500,15,1111,1,0,1,0,1361.0,122.0,90.0,3.5,0.85,3.136452153284292
1,501,10,1010,0,0,1,1,762.0,119.0,90.0,8.0,0.85,5.6456138759117245
1,502,10,1010,0,0,2,1,1919.0,344.0,90.0,8.0,0.85,5.6456138759117245
1,503,9,1001,0,1,1,0,2590.0,210.0,90.0,8.0,0.75,3.136452153284292
1,504,0,0,0,0,1,1,2848.0,184.0,225.0,8.0,0.75,5.6456138759117245
1,505,6,110,0,0,1,1,2129.0,175.0,225.0,3.5,0.85,5.6456138759117245
1,506,10,1010,0,1,1,0,3686.0,96.0,90.0,8.0,0.85,5.6456138759117245
1,507,11,1011,0,1,2,0,1465.0,165.0,90.0,8.0,0.85,3.136452153284292
1,508,12,1100,0,0,3,1,614.0,869.0,90.0,3.5,0.75,5.6456138759117245
1,509,6,110,0,0,3,1,1355.0,500.0,225.0,3.5,0.85,5.6456138759117245
1,510,8,1000,0,0,1,1,1627.0,140.0,90.0,8.0,0.75,5.6456138759117245
1,511,9,1001,0,0,1,1,537.0,599.0,90.0,8.0,0.75,3.136452153284292
1,512,13,1101,0,0,1,1,3413.0,172.0,90.0,3.5,0.75,3.136452153284292
1,513,2,10,1,1,3,1,2002.0,384.0,225.0,8.0,0.85,5.6456138759117245
1,514,3,11,1,1,2,1,1772.0,411.0,225.0,8.0,0.85,3.136452153284292
1,515,2,10,1,1,2,1,588.0,341.0,225.0,8.0,0.85,5.6456138759117245
1,516,4,100,0,0,1,1,492.0,303.0,225.0,3.5,0.75,5.6456138759117245
1,517,2,10,1,1,1,1,2557.0,216.0,225.0,8.0,0.85,5.6456138759117245
1,518,1,1,1,0,1,0,7189.0,183.0,225.0,8.0,0.75,3.136452153284292
1,519,3,11,1,1,1,1,1117.0,145.0,225.0,8.0,0.85,3.136452153284292
1,520,3,11,1,1,1,1,3308.0,378.0,225.0,8.0,0.85,3.136452153284292
1,521,15,1111,0,0,1,1,776.0,830.0,90.0,3.5,0.85,3.136452153284292
1,522,14,1110,0,1,1,0,3038.0,300.0,90.0,3.5,0.85,5.6456138759117245
1,523,10,1010,1,1,2,1,913.0,125.0,90.0,8.0,0.85,5.6456138759117245
1,524,4,100,1,1,2,1,753.0,537.0,225.0,3.5,0.75,5.6456138759117245
1,525,11,1011,0,0,2,1,475.0,898.0,90.0,8.0,0.85,3.136452153284292
1,526,2,10,1,1,3,1,1353.0,280.0,225.0,8.0,0.85,5.6456138759117245
1,527,3,11,0,0,2,1,1243.0,535.0,225.0,8.0,0.85,3.136452153284292
1,528,14,1110,1,1,1,1,1736.0,120.0,90.0,3.5,0.85,5.6456138759117245
1,529,9,1001,1,0,1,0,3183.0,243.0,90.0,8.0,0.75,3.136452153284292
1,530,13,1101,1,0,2,0,1291.0,357.0,90.0,3.5,0.75,3.136452153284292
1,531,10,1010,1,0,1,0,811.0,204.0,90.0,8.0,0.85,5.6456138759117245
1,532,2,10,0,0,2,1,482.0,208.0,225.0,8.0,0.85,5.6456138759117245
1,533,4,100,0,0,3,1,666.0,331.0,225.0,3.5,0.75,5.6456138759117245
1,534,11,1011,1,1,2,1,721.0,597.0,90.0,8.0,0.85,3.136452153284292
1,535,13,1101,1,0,1,0,1286.0,325.0,90.0,3.5,0.75,3.136452153284292
1,536,7,111,1,0,1,0,982.0,206.0,225.0,3.5,0.85,3.136452153284292
1,537,12,1100,1,1,1,1,1752.0,142.0,90.0,3.5,0.75,5.6456138759117245
1,538,11,1011,0,0,1,1,8402.0,577.0,90.0,8.0,0.85,3.136452153284292
1,539,7,111,1,0,1,0,888.0,178.0,225.0,3.5,0.85,3.136452153284292
1,540,15,1111,0,0,1,1,3772.0,133.0,90.0,3.5,0.85,3.136452153284292
1,541,0,0,0,0,2,1,813.0,383.0,225.0,8.0,0.75,5.6456138759117245
1,542,15,1111,1,0,1,0,1167.0,260.0,90.0,3.5,0.85,3.136452153284292
1,543,13,1101,0,0,1,1,3434.0,126.0,90.0,3.5,0.75,3.136452153284292
1,544,2,10,1,1,4,1,575.0,365.0,225.0,8.0,0.85,5.6456138759117245
1,545,12,1100,1,0,1,0,2237.0,640.0,90.0,3.5,0.75,5.6456138759117245
1,546,13,1101,0,0,2,1,471.0,187.0,90.0,3.5,0.75,3.136452153284292
1,547,1,1,1,0,1,0,2259.0,139.0,225.0,8.0,0.75,3.136452153284292
1,548,3,11,1,1,1,1,2220.0,402.0,225.0,8.0,0.85,3.136452153284292
1,549,5,101,1,1,1,1,735.0,90.0,225.0,3.5,0.75,3.136452153284292
1,550,5,101,1,1,1,1,2628.0,144.0,225.0,3.5,0.75,3.136452153284292
1,551,7,111,0,0,2,1,509.0,387.0,225.0,3.5,0.85,3.136452153284292
1,552,6,110,1,0,1,0,653.0,315.0,225.0,3.5,0.85,5.6456138759117245
1,553,7,111,1,1,1,1,2103.0,228.0,225.0,3.5,0.85,3.136452153284292
1,554,14,1110,1,0,1,0,1460.0,248.0,90.0,3.5,0.85,5.6456138759117245
1,555,5,101,1,1,2,1,4223.0,770.0,225.0,3.5,0.75,3.136452153284292
1,556,10,1010,1,0,1,0,1741.0,364.0,90.0,8.0,0.85,5.6456138759117245
1,557,0,0,0,0,2,1,570.0,754.0,225.0,8.0,0.75,5.6456138759117245
1,558,14,1110,1,0,1,0,2423.0,456.0,90.0,3.5,0.85,5.6456138759117245
1,559,6,110,0,0,2,1,3211.0,774.0,225.0,3.5,0.85,5.6456138759117245
1,560,12,1100,1,0,1,0,590.0,1445.0,90.0,3.5,0.75,5.6456138759117245
1,561,3,11,1,1,2,1,1389.0,429.0,225.0,8.0,0.85,3.136452153284292
1,562,9,1001,1,0,1,0,4483.0,129.0,90.0,8.0,0.75,3.136452153284292
1,563,7,111,0,0,1,1,764.0,420.0,225.0,3.5,0.85,3.136452153284292
1,564,6,110,0,0,3,1,1024.0,464.0,225.0,3.5,0.85,5.6456138759117245
1,565,6,110,0,0,1,1,1434.0,295.0,225.0,3.5,0.85,5.6456138759117245
1,566,12,1100,0,0,2,1,921.0,353.0,90.0,3.5,0.75,5.6456138759117245
1,567,10,1010,0,0,2,1,1066.0,981.0,90.0,8.0,0.85,5.6456138759117245
1,568,1,1,0,0,1,1,2853.0,102.0,225.0,8.0,0.75,3.136452153284292
1,569,5,101,1,1,2,1,1043.0,587.0,225.0,3.5,0.75,3.136452153284292
1,570,8,1000,0,0,1,1,555.0,910.0,90.0,8.0,0.75,5.6456138759117245
1,571,4,100,0,0,2,1,850.0,266.0,225.0,3.5,0.75,5.6456138759117245
1,572,11,1011,0,0,1,1,2249.0,231.0,90.0,8.0,0.85,3.136452153284292
1,573,6,110,1,1,3,1,554.0,354.0,225.0,3.5,0.85,5.6456138759117245
1,574,11,1011,1,1,1,1,1699.0,147.0,90.0,8.0,0.85,3.136452153284292
1,575,8,1000,0,0,2,1,376.0,360.0,90.0,8.0,0.75,5.6456138759117245
1,576,6,110,0,0,1,1,1232.0,207.0,225.0,3.5,0.85,5.6456138759117245
1,577,5,101,0,1,2,0,1964.0,348.0,225.0,3.5,0.75,3.136452153284292
1,578,10,1010,0,0,1,1,1876.0,88.0,90.0,8.0,0.85,5.6456138759117245
1,579,0,0,0,0,2,1,530.0,431.0,225.0,8.0,0.75,5.6456138759117245
1,580,15,1111,1,1,1,1,971.0,102.0,90.0,3.5,0.85,3.136452153284292
1,581,1,1,1,1,2,1,1311.0,443.0,225.0,8.0,0.75,3.136452153284292
1,582,6,110,1,0,1,0,1060.0,137.0,225.0,3.5,0.85,5.6456138759117245
1,583,8,1000,0,0,1,1,571.0,138.0,90.0,8.0,0.75,5.6456138759117245
1,584,11,1011,1,0,1,0,1820.0,1433.0,90.0,8.0,0.85,3.136452153284292
1,585,14,1110,0,0,1,1,3462.0,644.0,90.0,3.5,0.85,5.6456138759117245
1,586,10,1010,0,0,2,1,505.0,617.0,90.0,8.0,0.85,5.6456138759117245
1,587,2,10,1,1,3,1,535.0,938.0,225.0,8.0,0.85,5.6456138759117245
1,588,12,1100,0,0,2,1,2821.0,165.0,90.0,3.5,0.75,5.6456138759117245
1,589,12,1100,1,1,1,1,1382.0,169.0,90.0,3.5,0.75,5.6456138759117245
1,590,0,0,0,0,2,1,690.0,272.0,225.0,8.0,0.75,5.6456138759117245
1,591,9,1001,0,1,1,0,2589.0,102.0,90.0,8.0,0.75,3.136452153284292
1,592,12,1100,1,1,1,1,2246.0,154.0,90.0,3.5,0.75,5.6456138759117245
1,593,5,101,0,0,2,1,614.0,412.0,225.0,3.5,0.75,3.136452153284292
1,594,5,101,1,1,3,1,733.0,601.0,225.0,3.5,0.75,3.136452153284292
1,595,8,1000,0,0,2,1,998.0,207.0,90.0,8.0,0.75,5.6456138759117245
1,596,3,11,1,1,1,1,2033.0,128.0,225.0,8.0,0.85,3.136452153284292
1,597,1,1,1,1,2,1,597.0,156.0,225.0,8.0,0.75,3.136452153284292
1,598,7,111,0,0,2,1,2266.0,405.0,225.0,3.5,0.85,3.136452153284292
1,599,5,101,0,1,1,0,2439.0,141.0,225.0,3.5,0.75,3.136452153284292
1,600,9,1001,0,0,1,1,664.0,172.0,90.0,8.0,0.75,3.136452153284292
1,601,8,1000,1,1,3,1,596.0,286.0,90.0,8.0,0.75,5.6456138759117245
1,602,5,101,0,0,1,1,2801.0,136.0,225.0,3.5,0.75,3.136452153284292
1,603,2,10,0,0,2,1,857.0,835.0,225.0,8.0,0.85,5.6456138759117245
1,604,3,11,0,1,1,0,1197.0,124.0,225.0,8.0,0.85,3.136452153284292
1,605,13,1101,0,0,1,1,658.0,1471.0,90.0,3.5,0.75,3.136452153284292
1,606,4,100,0,0,1,1,1948.0,165.0,225.0,3.5,0.75,5.6456138759117245
1,607,1,1,1,1,4,1,489.0,322.0,225.0,8.0,0.75,3.136452153284292
1,608,11,1011,0,0,1,1,1501.0,214.0,90.0,8.0,0.85,3.136452153284292
1,609,7,111,1,0,2,0,2869.0,1046.0,225.0,3.5,0.85,3.136452153284292
1,610,15,1111,0,0,1,1,609.0,149.0,90.0,3.5,0.85,3.136452153284292
1,611,11,1011,1,1,1,1,5532.0,297.0,90.0,8.0,0.85,3.136452153284292
1,612,5,101,1,0,1,0,1571.0,95.0,225.0,3.5,0.75,3.136452153284292
1,613,10,1010,0,0,2,1,596.0,240.0,90.0,8.0,0.85,5.6456138759117245
1,614,7,111,0,0,1,1,2653.0,112.0,225.0,3.5,0.85,3.136452153284292
1,615,11,1011,0,0,2,1,658.0,369.0,90.0,8.0,0.85,3.136452153284292
1,616,4,100,1,1,2,1,6268.0,2171.0,225.0,3.5,0.75,5.6456138759117245
1,617,0,0,1,1,3,1,1123.0,440.0,225.0,8.0,0.75,5.6456138759117245
1,618,12,1100,0,0,1,1,543.0,392.0,90.0,3.5,0.75,5.6456138759117245
1,619,8,1000,1,1,2,1,1381.0,150.0,90.0,8.0,0.75,5.6456138759117245
1,620,9,1001,0,0,2,1,525.0,377.0,90.0,8.0,0.75,3.136452153284292
1,621,4,100,0,0,1,1,2094.0,185.0,225.0,3.5,0.75,5.6456138759117245
1,622,7,111,0,1,1,0,1528.0,86.0,225.0,3.5,0.85,3.136452153284292
1,623,0,0,0,0,2,1,638.0,411.0,225.0,8.0,0.75,5.6456138759117245
1,624,4,100,0,0,1,1,1018.0,367.0,225.0,3.5,0.75,5.6456138759117245
1,625,14,1110,0,0,1,1,2105.0,129.0,90.0,3.5,0.85,5.6456138759117245
1,626,7,111,0,1,2,0,772.0,262.0,225.0,3.5,0.85,3.136452153284292
1,627,2,10,0,0,1,1,1997.0,275.0,225.0,8.0,0.85,5.6456138759117245
1,628,14,1110,1,1,1,1,2126.0,270.0,90.0,3.5,0.85,5.6456138759117245
1,629,14,1110,1,1,1,1,1661.0,116.0,90.0,3.5,0.85,5.6456138759117245
1,630,4,100,0,0,1,1,2886.0,338.0,225.0,3.5,0.75,5.6456138759117245
1,631,7,111,0,1,1,0,1552.0,393.0,225.0,3.5,0.85,3.136452153284292
1,632,9,1001,1,1,2,1,773.0,215.0,90.0,8.0,0.75,3.136452153284292
1,633,7,111,0,1,1,0,959.0,872.0,225.0,3.5,0.85,3.136452153284292
1,634,4,100,1,1,3,1,579.0,339.0,225.0,3.5,0.75,5.6456138759117245
1,635,15,1111,0,0,1,1,3898.0,1456.0,90.0,3.5,0.85,3.136452153284292
1,636,11,1011,0,0,1,1,4113.0,265.0,90.0,8.0,0.85,3.136452153284292
1,637,11,1011,0,1,1,0,1128.0,1885.0,90.0,8.0,0.85,3.136452153284292
1,638,10,1010,0,1,1,0,1103.0,241.0,90.0,8.0,0.85,5.6456138759117245
1,639,13,1101,1,1,2,1,6929.0,1000.0,90.0,3.5,0.75,3.136452153284292
1,640,11,1011,0,1,2,0,1995.0,1295.0,90.0,8.0,0.85,3.136452153284292
1,641,6,110,1,1,2,1,854.0,292.0,225.0,3.5,0.85,5.6456138759117245
1,642,3,11,0,0,3,1,562.0,563.0,225.0,8.0,0.85,3.136452153284292
1,643,14,1110,0,0,2,1,2976.0,659.0,90.0,3.5,0.85,5.6456138759117245
1,644,3,11,1,1,2,1,639.0,366.0,225.0,8.0,0.85,3.136452153284292
1,645,9,1001,1,1,1,1,1769.0,127.0,90.0,8.0,0.75,3.136452153284292
1,646,6,110,0,0,2,1,449.0,905.0,225.0,3.5,0.85,5.6456138759117245
1,647,11,1011,0,0,2,1,520.0,326.0,90.0,8.0,0.85,3.136452153284292
1,648,0,0,1,1,1,1,986.0,4177.0,225.0,8.0,0.75,5.6456138759117245
1,649,9,1001,1,1,1,1,4630.0,755.0,90.0,8.0,0.75,3.136452153284292
1,650,7,111,1,1,2,1,5234.0,264.0,225.0,3.5,0.85,3.136452153284292
1,651,0,0,1,1,1,1,1523.0,950.0,225.0,8.0,0.75,5.6456138759117245
1,652,7,111,0,0,2,1,573.0,431.0,225.0,3.5,0.85,3.136452153284292
1,653,1,1,1,1,1,1,548.0,172.0,225.0,8.0,0.75,3.136452153284292
1,654,1,1,0,0,2,1,473.0,324.0,225.0,8.0,0.75,3.136452153284292
1,655,1,1,0,0,2,1,1011.0,749.0,225.0,8.0,0.75,3.136452153284292
1,656,1,1,0,0,3,1,551.0,3301.0,225.0,8.0,0.75,3.136452153284292
1,657,5,101,0,1,1,0,687.0,1072.0,225.0,3.5,0.75,3.136452153284292
1,658,2,10,1,0,1,0,978.0,236.0,225.0,8.0,0.85,5.6456138759117245
1,659,2,10,1,1,1,1,1408.0,888.0,225.0,8.0,0.85,5.6456138759117245
1,660,6,110,0,0,1,1,840.0,198.0,225.0,3.5,0.85,5.6456138759117245
1,661,6,110,1,0,1,0,3084.0,134.0,225.0,3.5,0.85,5.6456138759117245
1,662,4,100,0,0,1,1,1616.0,823.0,225.0,3.5,0.75,5.6456138759117245
1,663,5,101,1,1,2,1,572.0,185.0,225.0,3.5,0.75,3.136452153284292
1,664,7,111,1,1,1,1,1926.0,538.0,225.0,3.5,0.85,3.136452153284292
1,665,2,10,1,1,2,1,1718.0,582.0,225.0,8.0,0.85,5.6456138759117245
1,666,13,1101,1,1,1,1,2108.0,120.0,90.0,3.5,0.75,3.136452153284292
1,667,10,1010,1,1,2,1,821.0,248.0,90.0,8.0,0.85,5.6456138759117245
1,668,1,1,1,0,1,0,906.0,437.0,225.0,8.0,0.75,3.136452153284292
1,669,12,1100,1,0,1,0,3032.0,130.0,90.0,3.5,0.75,5.6456138759117245
1,670,13,1101,1,1,1,1,1954.0,289.0,90.0,3.5,0.75,3.136452153284292
1,671,15,1111,0,1,1,0,1951.0,256.0,90.0,3.5,0.85,3.136452153284292
1,672,4,100,0,0,1,1,1281.0,242.0,225.0,3.5,0.75,5.6456138759117245
1,673,9,1001,0,0,2,1,1297.0,403.0,90.0,8.0,0.75,3.136452153284292
1,674,2,10,1,1,3,1,1612.0,269.0,225.0,8.0,0.85,5.6456138759117245
1,675,11,1011,0,0,2,1,742.0,1748.0,90.0,8.0,0.85,3.136452153284292
1,676,12,1100,0,0,2,1,796.0,1069.0,90.0,3.5,0.75,5.6456138759117245
1,677,14,1110,1,1,3,1,1405.0,1648.0,90.0,3.5,0.85,5.6456138759117245
1,678,9,1001,1,1,2,1,928.0,548.0,90.0,8.0,0.75,3.136452153284292
1,679,6,110,0,0,1,1,690.0,125.0,225.0,3.5,0.85,5.6456138759117245
1,680,9,1001,1,1,3,1,1903.0,515.0,90.0,8.0,0.75,3.136452153284292
1,681,13,1101,0,0,2,1,781.0,496.0,90.0,3.5,0.75,3.136452153284292
1,682,15,1111,1,0,1,0,894.0,148.0,90.0,3.5,0.85,3.136452153284292
1,683,5,101,1,1,3,1,762.0,599.0,225.0,3.5,0.75,3.136452153284292
1,684,15,1111,0,0,1,1,2090.0,141.0,90.0,3.5,0.85,3.136452153284292
1,685,14,1110,1,0,1,0,1843.0,139.0,90.0,3.5,0.85,5.6456138759117245
1,686,15,1111,0,1,1,0,2258.0,78.0,90.0,3.5,0.85,3.136452153284292
1,687,8,1000,0,0,1,1,2063.0,136.0,90.0,8.0,0.75,5.6456138759117245
1,688,3,11,1,1,2,1,1319.0,462.0,225.0,8.0,0.85,3.136452153284292
1,689,4,100,1,1,4,1,581.0,345.0,225.0,3.5,0.75,5.6456138759117245
1,690,4,100,1,1,3,1,1754.0,170.0,225.0,3.5,0.75,5.6456138759117245
1,691,7,111,0,1,2,0,1820.0,344.0,225.0,3.5,0.85,3.136452153284292
1,692,6,110,0,0,1,1,1347.0,210.0,225.0,3.5,0.85,5.6456138759117245
1,693,5,101,1,1,2,1,858.0,176.0,225.0,3.5,0.75,3.136452153284292
1,694,11,1011,1,1,1,1,1872.0,92.0,90.0,8.0,0.85,3.136452153284292
1,695,14,1110,0,0,1,1,1696.0,159.0,90.0,3.5,0.85,5.6456138759117245
1,696,7,111,0,0,1,1,1185.0,218.0,225.0,3.5,0.85,3.136452153284292
1,697,14,1110,0,0,1,1,3304.0,219.0,90.0,3.5,0.85,5.6456138759117245
1,698,6,110,0,1,1,0,4765.0,165.0,225.0,3.5,0.85,5.6456138759117245
1,699,15,1111,1,0,2,0,5453.0,166.0,90.0,3.5,0.85,3.136452153284292
1,700,12,1100,1,1,2,1,853.0,296.0,90.0,3.5,0.75,5.6456138759117245
1,701,6,110,1,0,2,0,1763.0,204.0,225.0,3.5,0.85,5.6456138759117245
1,702,11,1011,1,0,1,0,2156.0,107.0,90.0,8.0,0.85,3.136452153284292
1,703,1,1,1,1,1,1,1527.0,224.0,225.0,8.0,0.75,3.136452153284292
1,704,9,1001,1,0,2,0,769.0,498.0,90.0,8.0,0.75,3.136452153284292
1,705,10,1010,1,1,2,1,2173.0,2655.0,90.0,8.0,0.85,5.6456138759117245
1,706,5,101,0,0,3,1,730.0,387.0,225.0,3.5,0.75,3.136452153284292
1,707,2,10,1,1,2,1,1624.0,331.0,225.0,8.0,0.85,5.6456138759117245
1,708,14,1110,0,0,1,1,1017.0,111.0,90.0,3.5,0.85,5.6456138759117245
1,709,9,1001,0,0,2,1,877.0,593.0,90.0,8.0,0.75,3.136452153284292
1,710,12,1100,1,1,1,1,604.0,394.0,90.0,3.5,0.75,5.6456138759117245
1,711,10,1010,0,0,1,1,926.0,115.0,90.0,8.0,0.85,5.6456138759117245
1,712,14,1110,0,1,1,0,1664.0,124.0,90.0,3.5,0.85,5.6456138759117245
1,713,0,0,1,1,2,1,948.0,450.0,225.0,8.0,0.75,5.6456138759117245
1,714,1,1,0,0,2,1,629.0,1617.0,225.0,8.0,0.75,3.136452153284292
1,715,8,1000,1,1,3,1,928.0,263.0,90.0,8.0,0.75,5.6456138759117245
1,716,1,1,0,0,3,1,2441.0,801.0,225.0,8.0,0.75,3.136452153284292
1,717,11,1011,0,1,1,0,1053.0,190.0,90.0,8.0,0.85,3.136452153284292
1,718,3,11,1,1,2,1,802.0,200.0,225.0,8.0,0.85,3.136452153284292
1,719,7,111,1,0,1,0,971.0,119.0,225.0,3.5,0.85,3.136452153284292
1,720,12,1100,1,0,1,0,719.0,160.0,90.0,3.5,0.75,5.6456138759117245
1,721,8,1000,1,1,1,1,2475.0,169.0,90.0,8.0,0.75,5.6456138759117245
1,722,13,1101,0,0,2,1,586.0,375.0,90.0,3.5,0.75,3.136452153284292
1,723,4,100,0,0,1,1,1170.0,477.0,225.0,3.5,0.75,5.6456138759117245
1,724,11,1011,0,1,1,0,1576.0,157.0,90.0,8.0,0.85,3.136452153284292
1,725,7,111,1,1,3,1,638.0,440.0,225.0,3.5,0.85,3.136452153284292
1,726,0,0,0,0,4,1,3168.0,731.0,225.0,8.0,0.75,5.6456138759117245
1,727,8,1000,0,0,3,1,1064.0,1028.0,90.0,8.0,0.75,5.6456138759117245
1,728,14,1110,0,0,1,1,853.0,166.0,90.0,3.5,0.85,5.6456138759117245
1,729,15,1111,0,0,2,1,829.0,254.0,90.0,3.5,0.85,3.136452153284292
1,730,14,1110,0,0,1,1,4165.0,123.0,90.0,3.5,0.85,5.6456138759117245
1,731,6,110,1,1,2,1,1101.0,108.0,225.0,3.5,0.85,5.6456138759117245
1,732,7,111,1,0,1,0,951.0,160.0,225.0,3.5,0.85,3.136452153284292
1,733,10,1010,1,1,1,1,1417.0,201.0,90.0,8.0,0.85,5.6456138759117245
1,734,0,0,0,0,2,1,1203.0,408.0,225.0,8.0,0.75,5.6456138759117245
1,735,8,1000,0,0,1,1,1877.0,420.0,90.0,8.0,0.75,5.6456138759117245
1,736,13,1101,0,0,1,1,789.0,2086.0,90.0,3.5,0.75,3.136452153284292
1,737,2,10,1,1,2,1,1283.0,336.0,225.0,8.0,0.85,5.6456138759117245
1,738,0,0,1,1,2,1,1963.0,396.0,225.0,8.0,0.75,5.6456138759117245
1,739,0,0,1,0,1,0,918.0,980.0,225.0,8.0,0.75,5.6456138759117245
1,740,11,1011,1,0,1,0,1674.0,134.0,90.0,8.0,0.85,3.136452153284292
1,741,0,0,0,0,2,1,934.0,438.0,225.0,8.0,0.75,5.6456138759117245
1,742,15,1111,0,0,1,1,756.0,107.0,90.0,3.5,0.85,3.136452153284292
1,743,0,0,1,1,1,1,1004.0,1195.0,225.0,8.0,0.75,5.6456138759117245
1,744,14,1110,0,0,1,1,1493.0,249.0,90.0,3.5,0.85,5.6456138759117245
1,745,12,1100,0,0,1,1,2470.0,589.0,90.0,3.5,0.75,5.6456138759117245
1,746,15,1111,0,0,1,1,3218.0,330.0,90.0,3.5,0.85,3.136452153284292
1,747,5,101,0,1,2,0,1027.0,344.0,225.0,3.5,0.75,3.136452153284292
1,748,13,1101,0,0,1,1,1021.0,997.0,90.0,3.5,0.75,3.136452153284292
1,749,7,111,0,1,1,0,1440.0,307.0,225.0,3.5,0.85,3.136452153284292
1,750,14,1110,1,1,1,1,1219.0,333.0,90.0,3.5,0.85,5.6456138759117245
1,751,3,11,0,0,2,1,831.0,580.0,225.0,8.0,0.85,3.136452153284292
1,752,8,1000,0,0,1,1,2272.0,487.0,90.0,8.0,0.75,5.6456138759117245
1,753,15,1111,0,0,1,1,1514.0,260.0,90.0,3.5,0.85,3.136452153284292
1,754,12,1100,1,1,2,1,894.0,260.0,90.0,3.5,0.75,5.6456138759117245
1,755,7,111,0,0,2,1,1803.0,292.0,225.0,3.5,0.85,3.136452153284292
1,756,5,101,0,1,1,0,950.0,637.0,225.0,3.5,0.75,3.136452153284292
1,757,2,10,1,1,3,1,1139.0,332.0,225.0,8.0,0.85,5.6456138759117245
1,758,7,111,1,0,1,0,1652.0,281.0,225.0,3.5,0.85,3.136452153284292
1,759,15,1111,0,0,1,1,681.0,144.0,90.0,3.5,0.85,3.136452153284292
1,760,9,1001,0,0,1,1,1732.0,123.0,90.0,8.0,0.75,3.136452153284292
1,761,2,10,0,0,2,1,3442.0,535.0,225.0,8.0,0.85,5.6456138759117245
1,762,2,10,0,0,1,1,1486.0,268.0,225.0,8.0,0.85,5.6456138759117245
1,763,10,1010,1,0,1,0,1685.0,106.0,90.0,8.0,0.85,5.6456138759117245
1,764,11,1011,1,1,1,1,1101.0,937.0,90.0,8.0,0.85,3.136452153284292
1,765,0,0,1,1,2,1,1509.0,255.0,225.0,8.0,0.75,5.6456138759117245
1,766,2,10,0,0,3,1,574.0,427.0,225.0,8.0,0.85,5.6456138759117245
1,767,15,1111,0,1,1,0,2285.0,146.0,90.0,3.5,0.85,3.136452153284292
1,768,13,1101,0,0,2,1,464.0,569.0,90.0,3.5,0.75,3.136452153284292
1,769,13,1101,0,0,2,1,847.0,442.0,90.0,3.5,0.75,3.136452153284292
1,770,12,1100,1,1,2,1,542.0,246.0,90.0,3.5,0.75,5.6456138759117245
1,771,14,1110,0,0,1,1,582.0,188.0,90.0,3.5,0.85,5.6456138759117245
1,772,8,1000,1,1,3,1,881.0,606.0,90.0,8.0,0.75,5.6456138759117245
1,773,12,1100,0,0,1,1,2041.0,1579.0,90.0,3.5,0.75,5.6456138759117245
1,774,0,0,0,0,2,1,1127.0,316.0,225.0,8.0,0.75,5.6456138759117245
1,775,3,11,0,1,1,0,1546.0,291.0,225.0,8.0,0.85,3.136452153284292
1,776,9,1001,1,1,2,1,2091.0,404.0,90.0,8.0,0.75,3.136452153284292
1,777,10,1010,0,0,2,1,1259.0,361.0,90.0,8.0,0.85,5.6456138759117245
1,778,8,1000,1,1,3,1,4033.0,1875.0,90.0,8.0,0.75,5.6456138759117245
1,779,13,1101,1,1,2,1,1667.0,146.0,90.0,3.5,0.75,3.136452153284292
1,780,12,1100,0,0,1,1,617.0,320.0,90.0,3.5,0.75,5.6456138759117245
1,781,5,101,0,0,1,1,2047.0,663.0,225.0,3.5,0.75,3.136452153284292
1,782,13,1101,1,0,1,0,651.0,359.0,90.0,3.5,0.75,3.136452153284292
1,783,4,100,0,0,1,1,1283.0,298.0,225.0,3.5,0.75,5.6456138759117245
1,784,7,111,1,1,1,1,713.0,374.0,225.0,3.5,0.85,3.136452153284292
1,785,15,1111,0,1,1,0,1244.0,167.0,90.0,3.5,0.85,3.136452153284292
1,786,5,101,0,1,1,0,2739.0,340.0,225.0,3.5,0.75,3.136452153284292
1,787,2,10,0,0,2,1,788.0,445.0,225.0,8.0,0.85,5.6456138759117245
1,788,14,1110,1,1,1,1,1011.0,405.0,90.0,3.5,0.85,5.6456138759117245
1,789,9,1001,1,0,1,0,1417.0,1474.0,90.0,8.0,0.75,3.136452153284292
1,790,4,100,1,1,2,1,593.0,350.0,225.0,3.5,0.75,5.6456138759117245
1,791,2,10,0,0,3,1,495.0,545.0,225.0,8.0,0.85,5.6456138759117245
1,792,0,0,0,0,3,1,689.0,607.0,225.0,8.0,0.75,5.6456138759117245
1,793,11,1011,1,1,1,1,2165.0,585.0,90.0,8.0,0.85,3.136452153284292
1,794,12,1100,1,1,1,1,2294.0,410.0,90.0,3.5,0.75,5.6456138759117245
1,795,9,1001,0,0,1,1,611.0,541.0,90.0,8.0,0.75,3.136452153284292
1,796,8,1000,0,0,3,1,740.0,1088.0,90.0,8.0,0.75,5.6456138759117245
1,797,15,1111,1,0,1,0,2459.0,310.0,90.0,3.5,0.85,3.136452153284292
1,798,10,1010,1,1,2,1,724.0,295.0,90.0,8.0,0.85,5.6456138759117245
1,799,9,1001,0,0,1,1,528.0,700.0,90.0,8.0,0.75,3.136452153284292
1,800,15,1111,1,0,1,0,2044.0,154.0,90.0,3.5,0.85,3.136452153284292
1,801,13,1101,0,0,3,1,1455.0,619.0,90.0,3.5,0.75,3.136452153284292
1,802,3,11,0,0,3,1,1580.0,890.0,225.0,8.0,0.85,3.136452153284292
1,803,4,100,1,0,1,0,2624.0,491.0,225.0,3.5,0.75,5.6456138759117245
1,804,3,11,1,1,1,1,1844.0,440.0,225.0,8.0,0.85,3.136452153284292
1,805,9,1001,0,0,2,1,647.0,711.0,90.0,8.0,0.75,3.136452153284292
1,806,0,0,1,1,2,1,3834.0,1532.0,225.0,8.0,0.75,5.6456138759117245
1,807,13,1101,1,1,2,1,1448.0,475.0,90.0,3.5,0.75,3.136452153284292
1,808,6,110,1,0,1,0,1150.0,288.0,225.0,3.5,0.85,5.6456138759117245
1,809,5,101,1,1,1,1,1522.0,198.0,225.0,3.5,0.75,3.136452153284292
1,810,2,10,1,1,1,1,1514.0,2437.0,225.0,8.0,0.85,5.6456138759117245
1,811,7,111,1,1,2,1,2545.0,517.0,225.0,3.5,0.85,3.136452153284292
1,812,0,0,0,0,3,1,527.0,391.0,225.0,8.0,0.75,5.6456138759117245
1,813,5,101,1,1,3,1,1570.0,1187.0,225.0,3.5,0.75,3.136452153284292
1,814,4,100,0,0,3,1,867.0,1066.0,225.0,3.5,0.75,5.6456138759117245
1,815,13,1101,1,1,1,1,2357.0,159.0,90.0,3.5,0.75,3.136452153284292
1,816,13,1101,1,1,1,1,1256.0,153.0,90.0,3.5,0.75,3.136452153284292
1,817,6,110,1,1,3,1,661.0,522.0,225.0,3.5,0.85,5.6456138759117245
1,818,13,1101,0,0,1,1,5921.0,1279.0,90.0,3.5,0.75,3.136452153284292
1,819,15,1111,1,0,1,0,5296.0,496.0,90.0,3.5,0.85,3.136452153284292
1,820,13,1101,0,1,2,0,1030.0,1528.0,90.0,3.5,0.75,3.136452153284292
1,821,14,1110,0,0,2,1,1236.0,700.0,90.0,3.5,0.85,5.6456138759117245
1,822,11,1011,1,0,1,0,2175.0,159.0,90.0,8.0,0.85,3.136452153284292
1,823,7,111,0,0,1,1,1138.0,274.0,225.0,3.5,0.85,3.136452153284292
1,824,12,1100,0,0,1,1,1255.0,730.0,90.0,3.5,0.75,5.6456138759117245
1,825,11,1011,0,0,2,1,1577.0,418.0,90.0,8.0,0.85,3.136452153284292
1,826,3,11,1,1,1,1,1794.0,320.0,225.0,8.0,0.85,3.136452153284292
1,827,0,0,1,1,2,1,698.0,809.0,225.0,8.0,0.75,5.6456138759117245
1,828,2,10,1,1,2,1,918.0,460.0,225.0,8.0,0.85,5.6456138759117245
1,829,3,11,0,0,1,1,622.0,831.0,225.0,8.0,0.85,3.136452153284292
1,830,14,1110,1,1,1,1,3968.0,613.0,90.0,3.5,0.85,5.6456138759117245
1,831,0,0,1,1,1,1,4223.0,653.0,225.0,8.0,0.75,5.6456138759117245
1,832,13,1101,1,1,2,1,2148.0,1574.0,90.0,3.5,0.75,3.136452153284292
1,833,4,100,1,1,2,1,2846.0,1315.0,225.0,3.5,0.75,5.6456138759117245
1,834,9,1001,0,0,2,1,636.0,1103.0,90.0,8.0,0.75,3.136452153284292
1,835,4,100,0,0,1,1,2098.0,152.0,225.0,3.5,0.75,5.6456138759117245
1,836,11,1011,0,0,1,1,1218.0,208.0,90.0,8.0,0.85,3.136452153284292
1,837,7,111,1,0,1,0,2823.0,469.0,225.0,3.5,0.85,3.136452153284292
1,838,0,0,0,0,3,1,1291.0,382.0,225.0,8.0,0.75,5.6456138759117245
1,839,4,100,1,1,4,1,607.0,342.0,225.0,3.5,0.75,5.6456138759117245
1,840,1,1,1,1,2,1,896.0,372.0,225.0,8.0,0.75,3.136452153284292
1,841,8,1000,1,1,2,1,698.0,360.0,90.0,8.0,0.75,5.6456138759117245
1,842,8,1000,1,1,1,1,887.0,795.0,90.0,8.0,0.75,5.6456138759117245
1,843,0,0,1,1,3,1,1928.0,253.0,225.0,8.0,0.75,5.6456138759117245
1,844,12,1100,0,0,4,1,616.0,509.0,90.0,3.5,0.75,5.6456138759117245
1,845,1,1,1,1,2,1,1075.0,794.0,225.0,8.0,0.75,3.136452153284292
1,846,3,11,0,0,3,1,639.0,597.0,225.0,8.0,0.85,3.136452153284292
1,847,5,101,1,1,1,1,3343.0,402.0,225.0,3.5,0.75,3.136452153284292
1,848,11,1011,1,0,1,0,2282.0,142.0,90.0,8.0,0.85,3.136452153284292
1,849,4,100,1,1,3,1,585.0,328.0,225.0,3.5,0.75,5.6456138759117245
1,850,3,11,1,1,1,1,1932.0,218.0,225.0,8.0,0.85,3.136452153284292
1,851,11,1011,1,0,2,0,1346.0,498.0,90.0,8.0,0.85,3.136452153284292
1,852,2,10,0,0,3,1,708.0,203.0,225.0,8.0,0.85,5.6456138759117245
1,853,7,111,1,1,1,1,2720.0,1059.0,225.0,3.5,0.85,3.136452153284292
1,854,8,1000,0,0,2,1,647.0,419.0,90.0,8.0,0.75,5.6456138759117245
1,855,0,0,1,1,2,1,3777.0,1182.0,225.0,8.0,0.75,5.6456138759117245
1,856,13,1101,0,0,2,1,511.0,429.0,90.0,3.5,0.75,3.136452153284292
1,857,6,110,0,0,3,1,944.0,917.0,225.0,3.5,0.85,5.6456138759117245
1,858,6,110,1,1,1,1,1106.0,211.0,225.0,3.5,0.85,5.6456138759117245
1,859,12,1100,1,1,1,1,1071.0,895.0,90.0,3.5,0.75,5.6456138759117245
1,860,3,11,1,0,1,0,1830.0,498.0,225.0,8.0,0.85,3.136452153284292
1,861,14,1110,1,0,1,0,1587.0,170.0,90.0,3.5,0.85,5.6456138759117245
1,862,6,110,0,0,2,1,779.0,264.0,225.0,3.5,0.85,5.6456138759117245
1,863,0,0,1,1,1,1,1332.0,515.0,225.0,8.0,0.75,5.6456138759117245
1,864,2,10,1,1,1,1,2788.0,221.0,225.0,8.0,0.85,5.6456138759117245
1,865,12,1100,1,1,2,1,1394.0,613.0,90.0,3.5,0.75,5.6456138759117245
1,866,7,111,0,0,3,1,1596.0,726.0,225.0,3.5,0.85,3.136452153284292
1,867,8,1000,1,1,2,1,649.0,440.0,90.0,8.0,0.75,5.6456138759117245
1,868,2,10,1,1,1,1,1762.0,182.0,225.0,8.0,0.85,5.6456138759117245
1,869,12,1100,0,0,1,1,518.0,805.0,90.0,3.5,0.75,5.6456138759117245
1,870,14,1110,0,0,1,1,6696.0,854.0,90.0,3.5,0.85,5.6456138759117245
1,871,15,1111,0,1,1,0,2350.0,485.0,90.0,3.5,0.85,3.136452153284292
1,872,9,1001,0,0,2,1,721.0,244.0,90.0,8.0,0.75,3.136452153284292
1,873,4,100,0,0,1,1,1918.0,211.0,225.0,3.5,0.75,5.6456138759117245
1,874,15,1111,0,0,1,1,1675.0,157.0,90.0,3.5,0.85,3.136452153284292
1,875,0,0,0,0,2,1,567.0,219.0,225.0,8.0,0.75,5.6456138759117245
1,876,12,1100,1,1,3,1,806.0,972.0,90.0,3.5,0.75,5.6456138759117245
1,877,4,100,1,1,1,1,2111.0,230.0,225.0,3.5,0.75,5.6456138759117245
1,878,0,0,0,0,3,1,479.0,394.0,225.0,8.0,0.75,5.6456138759117245
1,879,14,1110,0,0,2,1,523.0,1027.0,90.0,3.5,0.85,5.6456138759117245
1,880,10,1010,1,0,1,0,2566.0,615.0,90.0,8.0,0.85,5.6456138759117245
1,881,9,1001,1,1,3,1,588.0,531.0,90.0,8.0,0.75,3.136452153284292
1,882,6,110,0,0,1,1,1301.0,235.0,225.0,3.5,0.85,5.6456138759117245
1,883,8,1000,0,0,1,1,1957.0,582.0,90.0,8.0,0.75,5.6456138759117245
1,884,3,11,1,1,1,1,710.0,452.0,225.0,8.0,0.85,3.136452153284292
1,885,6,110,1,1,2,1,1241.0,239.0,225.0,3.5,0.85,5.6456138759117245
1,886,15,1111,1,1,1,1,1375.0,109.0,90.0,3.5,0.85,3.136452153284292
1,887,5,101,1,1,2,1,748.0,400.0,225.0,3.5,0.75,3.136452153284292
1,888,15,1111,0,0,1,1,933.0,401.0,90.0,3.5,0.85,3.136452153284292
1,889,0,0,0,0,3,1,3193.0,993.0,225.0,8.0,0.75,5.6456138759117245
1,890,6,110,1,1,1,1,812.0,224.0,225.0,3.5,0.85,5.6456138759117245
1,891,13,1101,0,0,2,1,1320.0,293.0,90.0,3.5,0.75,3.136452153284292
1,892,10,1010,0,0,2,1,2457.0,697.0,90.0,8.0,0.85,5.6456138759117245
1,893,13,1101,1,1,1,1,750.0,275.0,90.0,3.5,0.75,3.136452153284292
1,894,2,10,1,1,3,1,625.0,558.0,225.0,8.0,0.85,5.6456138759117245
1,895,11,1011,0,0,2,1,1640.0,328.0,90.0,8.0,0.85,3.136452153284292
1,896,3,11,1,1,1,1,701.0,149.0,225.0,8.0,0.85,3.136452153284292
1,897,8,1000,1,1,2,1,1140.0,339.0,90.0,8.0,0.75,5.6456138759117245
1,898,5,101,1,0,1,0,676.0,874.0,225.0,3.5,0.75,3.136452153284292
1,899,11,1011,1,0,1,0,925.0,375.0,90.0,8.0,0.85,3.136452153284292
1,900,9,1001,1,1,1,1,1076.0,282.0,90.0,8.0,0.75,3.136452153284292
1,901,2,10,1,1,2,1,1499.0,840.0,225.0,8.0,0.85,5.6456138759117245
1,902,9,1001,1,1,1,1,1282.0,149.0,90.0,8.0,0.75,3.136452153284292
1,903,12,1100,1,1,1,1,1185.0,599.0,90.0,3.5,0.75,5.6456138759117245
1,904,3,11,0,0,1,1,494.0,443.0,225.0,8.0,0.85,3.136452153284292
1,905,5,101,1,1,2,1,1055.0,264.0,225.0,3.5,0.75,3.136452153284292
1,906,2,10,0,0,2,1,673.0,565.0,225.0,8.0,0.85,5.6456138759117245
1,907,5,101,0,0,1,1,902.0,354.0,225.0,3.5,0.75,3.136452153284292
1,908,5,101,0,0,1,1,900.0,269.0,225.0,3.5,0.75,3.136452153284292
1,909,6,110,0,0,1,1,1153.0,278.0,225.0,3.5,0.85,5.6456138759117245
1,910,3,11,1,1,2,1,570.0,284.0,225.0,8.0,0.85,3.136452153284292
1,911,7,111,0,0,1,1,2933.0,291.0,225.0,3.5,0.85,3.136452153284292
1,912,4,100,0,0,1,1,2509.0,287.0,225.0,3.5,0.75,5.6456138759117245
1,913,15,1111,1,0,1,0,1463.0,205.0,90.0,3.5,0.85,3.136452153284292
1,914,1,1,1,1,1,1,3077.0,294.0,225.0,8.0,0.75,3.136452153284292
1,915,5,101,0,0,2,1,747.0,382.0,225.0,3.5,0.75,3.136452153284292
1,916,5,101,1,0,3,0,1434.0,211.0,225.0,3.5,0.75,3.136452153284292
1,917,4,100,1,1,1,1,1009.0,894.0,225.0,3.5,0.75,5.6456138759117245
1,918,10,1010,0,0,1,1,849.0,813.0,90.0,8.0,0.85,5.6456138759117245
1,919,10,1010,0,0,3,1,1256.0,392.0,90.0,8.0,0.85,5.6456138759117245
1,920,6,110,0,0,2,1,1370.0,905.0,225.0,3.5,0.85,5.6456138759117245
1,921,15,1111,0,0,1,1,1086.0,625.0,90.0,3.5,0.85,3.136452153284292
1,922,7,111,1,1,2,1,711.0,199.0,225.0,3.5,0.85,3.136452153284292
1,923,1,1,1,1,1,1,2202.0,445.0,225.0,8.0,0.75,3.136452153284292
1,924,13,1101,1,1,1,1,1546.0,578.0,90.0,3.5,0.75,3.136452153284292
1,925,9,1001,1,1,1,1,2080.0,148.0,90.0,8.0,0.75,3.136452153284292
1,926,6,110,0,0,1,1,994.0,507.0,225.0,3.5,0.85,5.6456138759117245
1,927,9,1001,0,0,1,1,2768.0,490.0,90.0,8.0,0.75,3.136452153284292
1,928,1,1,1,1,2,1,1593.0,589.0,225.0,8.0,0.75,3.136452153284292
1,929,3,11,0,0,2,1,2741.0,1240.0,225.0,8.0,0.85,3.136452153284292
1,930,3,11,0,0,1,1,1088.0,158.0,225.0,8.0,0.85,3.136452153284292
1,931,5,101,1,1,3,1,616.0,389.0,225.0,3.5,0.75,3.136452153284292
1,932,13,1101,1,0,1,0,1856.0,128.0,90.0,3.5,0.75,3.136452153284292
1,933,12,1100,1,1,2,1,647.0,503.0,90.0,3.5,0.75,5.6456138759117245
1,934,11,1011,1,1,1,1,1404.0,567.0,90.0,8.0,0.85,3.136452153284292
1,935,2,10,1,1,3,1,1535.0,304.0,225.0,8.0,0.85,5.6456138759117245
1,936,0,0,0,0,4,1,428.0,297.0,225.0,8.0,0.75,5.6456138759117245
1,937,15,1111,1,0,1,0,2075.0,148.0,90.0,3.5,0.85,3.136452153284292
1,938,10,1010,0,0,2,1,2094.0,314.0,90.0,8.0,0.85,5.6456138759117245
1,939,7,111,1,1,1,1,1676.0,122.0,225.0,3.5,0.85,3.136452153284292
1,940,8,1000,0,0,3,1,550.0,329.0,90.0,8.0,0.75,5.6456138759117245
1,941,11,1011,1,0,2,0,1308.0,435.0,90.0,8.0,0.85,3.136452153284292
1,942,7,111,0,0,1,1,1216.0,685.0,225.0,3.5,0.85,3.136452153284292
1,943,12,1100,0,0,2,1,659.0,225.0,90.0,3.5,0.75,5.6456138759117245
1,944,4,100,0,0,1,1,1517.0,562.0,225.0,3.5,0.75,5.6456138759117245
1,945,13,1101,0,0,2,1,2429.0,1502.0,90.0,3.5,0.75,3.136452153284292
1,946,14,1110,0,0,1,1,989.0,248.0,90.0,3.5,0.85,5.6456138759117245
1,947,9,1001,1,1,1,1,1323.0,1417.0,90.0,8.0,0.75,3.136452153284292
1,948,3,11,1,1,2,1,1243.0,330.0,225.0,8.0,0.85,3.136452153284292
1,949,3,11,1,0,2,0,619.0,1215.0,225.0,8.0,0.85,3.136452153284292
1,950,13,1101,1,0,1,0,1405.0,248.0,90.0,3.5,0.75,3.136452153284292
1,951,7,111,1,1,1,1,2788.0,143.0,225.0,3.5,0.85,3.136452153284292
1,952,0,0,0,0,3,1,572.0,327.0,225.0,8.0,0.75,5.6456138759117245
1,953,14,1110,0,0,1,1,1335.0,577.0,90.0,3.5,0.85,5.6456138759117245
1,954,12,1100,1,1,1,1,699.0,953.0,90.0,3.5,0.75,5.6456138759117245
1,955,14,1110,0,0,1,1,1866.0,302.0,90.0,3.5,0.85,5.6456138759117245
1,956,1,1,1,1,3,1,574.0,310.0,225.0,8.0,0.75,3.136452153284292
1,957,10,1010,0,0,2,1,2170.0,863.0,90.0,8.0,0.85,5.6456138759117245
1,958,10,1010,1,1,3,1,1124.0,995.0,90.0,8.0,0.85,5.6456138759117245
1,959,11,1011,1,1,2,1,1299.0,696.0,90.0,8.0,0.85,3.136452153284292
1,960,14,1110,0,0,1,1,986.0,278.0,90.0,3.5,0.85,5.6456138759117245
1,961,10,1010,0,1,1,0,1464.0,366.0,90.0,8.0,0.85,5.6456138759117245
1,962,7,111,1,1,2,1,665.0,153.0,225.0,3.5,0.85,3.136452153284292
1,963,10,1010,1,1,1,1,1970.0,206.0,90.0,8.0,0.85,5.6456138759117245
1,964,15,1111,0,0,3,1,609.0,293.0,90.0,3.5,0.85,3.136452153284292
1,965,12,1100,0,0,2,1,533.0,293.0,90.0,3.5,0.75,5.6456138759117245
1,966,6,110,0,0,2,1,660.0,593.0,225.0,3.5,0.85,5.6456138759117245
1,967,14,1110,1,0,1,0,1583.0,152.0,90.0,3.5,0.85,5.6456138759117245
1,968,15,1111,0,0,2,1,1115.0,369.0,90.0,3.5,0.85,3.136452153284292
1,969,1,1,1,1,3,1,634.0,962.0,225.0,8.0,0.75,3.136452153284292
1,970,2,10,0,0,3,1,639.0,352.0,225.0,8.0,0.85,5.6456138759117245
1,971,6,110,1,1,3,1,1193.0,1282.0,225.0,3.5,0.85,5.6456138759117245
1,972,2,10,0,0,4,1,1098.0,558.0,225.0,8.0,0.85,5.6456138759117245
1,973,2,10,1,1,4,1,922.0,204.0,225.0,8.0,0.85,5.6456138759117245
1,974,12,1100,0,0,3,1,893.0,325.0,90.0,3.5,0.75,5.6456138759117245
1,975,10,1010,0,0,2,1,1008.0,868.0,90.0,8.0,0.85,5.6456138759117245
1,976,8,1000,0,0,3,1,906.0,319.0,90.0,8.0,0.75,5.6456138759117245
1,977,7,111,0,0,2,1,1035.0,260.0,225.0,3.5,0.85,3.136452153284292
1,978,10,1010,0,0,2,1,722.0,421.0,90.0,8.0,0.85,5.6456138759117245
1,979,10,1010,1,1,1,1,2512.0,253.0,90.0,8.0,0.85,5.6456138759117245
1,980,15,1111,1,0,2,0,782.0,331.0,90.0,3.5,0.85,3.136452153284292
1,981,2,10,0,0,1,1,1502.0,199.0,225.0,8.0,0.85,5.6456138759117245
1,982,2,10,0,0,1,1,1554.0,862.0,225.0,8.0,0.85,5.6456138759117245
1,983,10,1010,1,1,2,1,851.0,277.0,90.0,8.0,0.85,5.6456138759117245
1,984,1,1,1,1,2,1,1770.0,880.0,225.0,8.0,0.75,3.136452153284292
1,985,15,1111,0,0,1,1,642.0,289.0,90.0,3.5,0.85,3.136452153284292
1,986,4,100,1,1,2,1,1515.0,364.0,225.0,3.5,0.75,5.6456138759117245
1,987,13,1101,1,1,1,1,1705.0,262.0,90.0,3.5,0.75,3.136452153284292
1,988,13,1101,1,1,1,1,2446.0,1625.0,90.0,3.5,0.75,3.136452153284292
1,989,6,110,1,1,3,1,1633.0,593.0,225.0,3.5,0.85,5.6456138759117245
1,990,8,1000,1,1,2,1,1468.0,357.0,90.0,8.0,0.75,5.6456138759117245
1,991,6,110,1,1,1,1,1297.0,224.0,225.0,3.5,0.85,5.6456138759117245
1,992,2,10,0,0,3,1,568.0,380.0,225.0,8.0,0.85,5.6456138759117245
1,993,1,1,0,0,2,1,1201.0,552.0,225.0,8.0,0.75,3.136452153284292
1,994,5,101,0,0,1,1,1107.0,151.0,225.0,3.5,0.75,3.136452153284292
1,995,0,0,1,1,3,1,542.0,217.0,225.0,8.0,0.75,5.6456138759117245
1,996,2,10,1,1,3,1,735.0,330.0,225.0,8.0,0.85,5.6456138759117245
1,997,7,111,1,0,1,0,1062.0,461.0,225.0,3.5,0.85,3.136452153284292
1,998,4,100,1,1,2,1,747.0,807.0,225.0,3.5,0.75,5.6456138759117245
1,999,13,1101,0,0,1,1,612.0,219.0,90.0,3.5,0.75,3.136452153284292
1,1000,1,1,0,0,2,1,713.0,333.0,225.0,8.0,0.75,3.136452153284292
1,1001,10,1010,1,0,1,0,4161.0,282.0,90.0,8.0,0.85,5.6456138759117245
1,1002,11,1011,0,0,2,1,646.0,249.0,90.0,8.0,0.85,3.136452153284292
1,1003,0,0,0,0,3,1,1454.0,200.0,225.0,8.0,0.75,5.6456138759117245
1,1004,5,101,0,0,1,1,2196.0,736.0,225.0,3.5,0.75,3.136452153284292
1,1005,1,1,0,0,3,1,1750.0,488.0,225.0,8.0,0.75,3.136452153284292
1,1006,0,0,0,0,3,1,856.0,306.0,225.0,8.0,0.75,5.6456138759117245
1,1007,12,1100,1,1,2,1,589.0,470.0,90.0,3.5,0.75,5.6456138759117245
1,1008,11,1011,0,1,1,0,2632.0,87.0,90.0,8.0,0.85,3.136452153284292
1,1009,4,100,1,1,2,1,730.0,144.0,225.0,3.5,0.75,5.6456138759117245
1,1010,13,1101,0,0,1,1,953.0,167.0,90.0,3.5,0.75,3.136452153284292
1,1011,2,10,1,1,3,1,2751.0,746.0,225.0,8.0,0.85,5.6456138759117245
1,1012,2,10,0,0,3,1,1054.0,1926.0,225.0,8.0,0.85,5.6456138759117245
1,1013,15,1111,1,0,1,0,1439.0,190.0,90.0,3.5,0.85,3.136452153284292
1,1014,14,1110,1,1,1,1,2574.0,110.0,90.0,3.5,0.85,5.6456138759117245
1,1015,10,1010,0,0,2,1,1074.0,600.0,90.0,8.0,0.85,5.6456138759117245
1,1016,6,110,1,1,2,1,1163.0,177.0,225.0,3.5,0.85,5.6456138759117245
1,1017,4,100,0,0,1,1,797.0,320.0,225.0,3.5,0.75,5.6456138759117245
1,1018,0,0,1,1,3,1,594.0,375.0,225.0,8.0,0.75,5.6456138759117245
1,1019,5,101,1,1,4,1,769.0,122.0,225.0,3.5,0.75,3.136452153284292
1,1020,9,1001,1,1,3,1,1746.0,747.0,90.0,8.0,0.75,3.136452153284292
1,1021,12,1100,0,0,2,1,1211.0,2849.0,90.0,3.5,0.75,5.6456138759117245
1,1022,1,1,1,1,2,1,1554.0,559.0,225.0,8.0,0.75,3.136452153284292
1,1023,11,1011,0,0,3,1,1262.0,982.0,90.0,8.0,0.85,3.136452153284292
1,1024,1,1,0,0,4,1,1407.0,310.0,225.0,8.0,0.75,3.136452153284292
1,1025,7,111,0,1,1,0,2819.0,399.0,225.0,3.5,0.85,3.136452153284292
1,1026,0,0,0,0,3,1,473.0,394.0,225.0,8.0,0.75,5.6456138759117245
1,1027,13,1101,0,0,2,1,2148.0,430.0,90.0,3.5,0.75,3.136452153284292
1,1028,4,100,1,1,3,1,786.0,348.0,225.0,3.5,0.75,5.6456138759117245
1,1029,14,1110,1,0,1,0,1613.0,206.0,90.0,3.5,0.85,5.6456138759117245
1,1030,3,11,1,1,2,1,802.0,247.0,225.0,8.0,0.85,3.136452153284292
1,1031,12,1100,0,0,1,1,1743.0,72.0,90.0,3.5,0.75,5.6456138759117245
1,1032,15,1111,0,0,1,1,1054.0,107.0,90.0,3.5,0.85,3.136452153284292
1,1033,14,1110,1,1,1,1,1308.0,175.0,90.0,3.5,0.85,5.6456138759117245
1,1034,10,1010,0,0,2,1,628.0,197.0,90.0,8.0,0.85,5.6456138759117245
1,1035,6,110,0,1,2,0,975.0,669.0,225.0,3.5,0.85,5.6456138759117245
1,1036,6,110,0,0,1,1,1608.0,1559.0,225.0,3.5,0.85,5.6456138759117245
1,1037,15,1111,1,1,1,1,3059.0,142.0,90.0,3.5,0.85,3.136452153284292
1,1038,0,0,0,0,3,1,625.0,281.0,225.0,8.0,0.75,5.6456138759117245
1,1039,13,1101,1,1,3,1,760.0,1745.0,90.0,3.5,0.75,3.136452153284292
1,1040,9,1001,0,1,2,0,3831.0,436.0,90.0,8.0,0.75,3.136452153284292
1,1041,6,110,0,1,1,0,1485.0,124.0,225.0,3.5,0.85,5.6456138759117245
1,1042,8,1000,1,1,4,1,591.0,238.0,90.0,8.0,0.75,5.6456138759117245
1,1043,0,0,1,1,4,1,504.0,141.0,225.0,8.0,0.75,5.6456138759117245
1,1044,11,1011,0,0,2,1,1041.0,434.0,90.0,8.0,0.85,3.136452153284292
1,1045,11,1011,1,1,1,1,1769.0,220.0,90.0,8.0,0.85,3.136452153284292
1,1046,7,111,0,0,1,1,1335.0,92.0,225.0,3.5,0.85,3.136452153284292
1,1047,4,100,1,1,3,1,786.0,979.0,225.0,3.5,0.75,5.6456138759117245
1,1048,15,1111,1,1,2,1,1813.0,205.0,90.0,3.5,0.85,3.136452153284292
1,1049,6,110,0,0,1,1,2116.0,1260.0,225.0,3.5,0.85,5.6456138759117245
1,1050,11,1011,0,1,1,0,1715.0,207.0,90.0,8.0,0.85,3.136452153284292
1,1051,9,1001,0,0,1,1,1853.0,90.0,90.0,8.0,0.75,3.136452153284292
1,1052,1,1,0,0,2,1,933.0,213.0,225.0,8.0,0.75,3.136452153284292
1,1053,2,10,1,1,2,1,584.0,506.0,225.0,8.0,0.85,5.6456138759117245
1,1054,6,110,0,0,1,1,831.0,474.0,225.0,3.5,0.85,5.6456138759117245
1,1055,7,111,0,1,1,0,660.0,245.0,225.0,3.5,0.85,3.136452153284292
1,1056,0,0,1,1,3,1,615.0,326.0,225.0,8.0,0.75,5.6456138759117245
1,1057,3,11,1,1,1,1,2249.0,221.0,225.0,8.0,0.85,3.136452153284292
1,1058,1,1,1,1,2,1,1281.0,158.0,225.0,8.0,0.75,3.136452153284292
1,1059,1,1,0,0,3,1,546.0,296.0,225.0,8.0,0.75,3.136452153284292
1,1060,7,111,0,1,1,0,928.0,153.0,225.0,3.5,0.85,3.136452153284292
1,1061,2,10,0,0,2,1,505.0,198.0,225.0,8.0,0.85,5.6456138759117245
1,1062,15,1111,0,0,2,1,672.0,305.0,90.0,3.5,0.85,3.136452153284292
1,1063,12,1100,0,0,3,1,699.0,159.0,90.0,3.5,0.75,5.6456138759117245
1,1064,6,110,1,1,2,1,658.0,443.0,225.0,3.5,0.85,5.6456138759117245
1,1065,7,111,1,1,1,1,1328.0,109.0,225.0,3.5,0.85,3.136452153284292
1,1066,9,1001,1,1,1,1,1499.0,331.0,90.0,8.0,0.75,3.136452153284292
1,1067,6,110,0,0,1,1,1372.0,274.0,225.0,3.5,0.85,5.6456138759117245
1,1068,10,1010,0,0,2,1,604.0,233.0,90.0,8.0,0.85,5.6456138759117245
1,1069,7,111,0,1,1,0,1442.0,145.0,225.0,3.5,0.85,3.136452153284292
1,1070,10,1010,0,0,2,1,1082.0,408.0,90.0,8.0,0.85,5.6456138759117245
1,1071,2,10,1,1,3,1,554.0,150.0,225.0,8.0,0.85,5.6456138759117245
1,1072,2,10,1,1,3,1,1572.0,505.0,225.0,8.0,0.85,5.6456138759117245
1,1073,11,1011,0,0,1,1,1133.0,152.0,90.0,8.0,0.85,3.136452153284292
1,1074,8,1000,1,1,4,1,597.0,121.0,90.0,8.0,0.75,5.6456138759117245
1,1075,12,1100,0,0,2,1,589.0,302.0,90.0,3.5,0.75,5.6456138759117245
1,1076,15,1111,0,1,1,0,3615.0,102.0,90.0,3.5,0.85,3.136452153284292
1,1077,13,1101,0,1,1,0,1042.0,62.0,90.0,3.5,0.75,3.136452153284292
1,1078,4,100,1,1,3,1,531.0,171.0,225.0,3.5,0.75,5.6456138759117245
1,1079,14,1110,1,1,2,1,813.0,293.0,90.0,3.5,0.85,5.6456138759117245
1,1080,10,1010,1,1,2,1,980.0,1295.0,90.0,8.0,0.85,5.6456138759117245
1,1081,14,1110,0,0,1,1,941.0,142.0,90.0,3.5,0.85,5.6456138759117245
1,1082,15,1111,0,0,1,1,599.0,148.0,90.0,3.5,0.85,3.136452153284292
1,1083,14,1110,1,1,1,1,1508.0,147.0,90.0,3.5,0.85,5.6456138759117245
1,1084,2,10,1,1,3,1,1117.0,577.0,225.0,8.0,0.85,5.6456138759117245
1,1085,0,0,1,1,3,1,645.0,247.0,225.0,8.0,0.75,5.6456138759117245
1,1086,3,11,1,1,2,1,1253.0,268.0,225.0,8.0,0.85,3.136452153284292
1,1087,3,11,1,1,1,1,903.0,117.0,225.0,8.0,0.85,3.136452153284292
1,1088,1,1,0,0,1,1,706.0,600.0,225.0,8.0,0.75,3.136452153284292
1,1089,7,111,1,1,2,1,1197.0,181.0,225.0,3.5,0.85,3.136452153284292
1,1090,11,1011,1,1,1,1,2714.0,84.0,90.0,8.0,0.85,3.136452153284292
1,1091,8,1000,0,0,2,1,564.0,227.0,90.0,8.0,0.75,5.6456138759117245
1,1092,15,1111,1,0,1,0,533.0,140.0,90.0,3.5,0.85,3.136452153284292
1,1093,9,1001,0,0,1,1,1391.0,126.0,90.0,8.0,0.75,3.136452153284292
1,1094,14,1110,0,0,1,1,2180.0,103.0,90.0,3.5,0.85,5.6456138759117245
1,1095,2,10,1,1,2,1,799.0,262.0,225.0,8.0,0.85,5.6456138759117245
1,1096,8,1000,1,1,3,1,507.0,167.0,90.0,8.0,0.75,5.6456138759117245
1,1097,4,100,0,0,2,1,1973.0,822.0,225.0,3.5,0.75,5.6456138759117245
1,1098,10,1010,0,0,2,1,634.0,749.0,90.0,8.0,0.85,5.6456138759117245
1,1099,14,1110,1,1,1,1,625.0,510.0,90.0,3.5,0.85,5.6456138759117245
1,1100,8,1000,1,1,3,1,609.0,344.0,90.0,8.0,0.75,5.6456138759117245
1,1101,10,1010,0,0,1,1,2135.0,128.0,90.0,8.0,0.85,5.6456138759117245
1,1102,8,1000,0,0,1,1,1457.0,177.0,90.0,8.0,0.75,5.6456138759117245
1,1103,8,1000,1,1,3,1,683.0,367.0,90.0,8.0,0.75,5.6456138759117245
1,1104,3,11,1,1,1,1,2125.0,226.0,225.0,8.0,0.85,3.136452153284292
1,1105,5,101,1,1,2,1,1670.0,1048.0,225.0,3.5,0.75,3.136452153284292
1,1106,10,1010,0,0,3,1,1064.0,298.0,90.0,8.0,0.85,5.6456138759117245
1,1107,2,10,0,0,1,1,1864.0,302.0,225.0,8.0,0.85,5.6456138759117245
1,1108,12,1100,1,1,4,1,634.0,321.0,90.0,3.5,0.75,5.6456138759117245
1,1109,12,1100,1,1,1,1,1769.0,218.0,90.0,3.5,0.75,5.6456138759117245
1,1110,15,1111,1,0,1,0,1284.0,485.0,90.0,3.5,0.85,3.136452153284292
1,1111,4,100,1,1,1,1,1272.0,1123.0,225.0,3.5,0.75,5.6456138759117245
1,1112,14,1110,0,0,1,1,767.0,282.0,90.0,3.5,0.85,5.6456138759117245
1,1113,0,0,1,1,3,1,821.0,309.0,225.0,8.0,0.75,5.6456138759117245
1,1114,11,1011,1,1,2,1,1635.0,231.0,90.0,8.0,0.85,3.136452153284292
1,1115,11,1011,1,1,1,1,1550.0,326.0,90.0,8.0,0.85,3.136452153284292
1,1116,2,10,0,0,1,1,627.0,626.0,225.0,8.0,0.85,5.6456138759117245
1,1117,14,1110,1,1,1,1,2781.0,238.0,90.0,3.5,0.85,5.6456138759117245
1,1118,10,1010,1,1,2,1,1339.0,412.0,90.0,8.0,0.85,5.6456138759117245
1,1119,10,1010,1,0,1,0,952.0,257.0,90.0,8.0,0.85,5.6456138759117245
1,1120,9,1001,0,0,1,1,1489.0,335.0,90.0,8.0,0.75,3.136452153284292
1,1121,10,1010,1,1,2,1,914.0,743.0,90.0,8.0,0.85,5.6456138759117245
1,1122,11,1011,0,0,1,1,1844.0,623.0,90.0,8.0,0.85,3.136452153284292
1,1123,3,11,1,1,1,1,2239.0,1120.0,225.0,8.0,0.85,3.136452153284292
1,1124,7,111,0,1,1,0,2080.0,150.0,225.0,3.5,0.85,3.136452153284292
1,1125,13,1101,0,0,1,1,1267.0,153.0,90.0,3.5,0.75,3.136452153284292
1,1126,9,1001,1,1,3,1,591.0,167.0,90.0,8.0,0.75,3.136452153284292
1,1127,11,1011,0,0,1,1,2955.0,2112.0,90.0,8.0,0.85,3.136452153284292
1,1128,13,1101,1,0,1,0,1316.0,185.0,90.0,3.5,0.75,3.136452153284292
1,1129,4,100,0,0,1,1,1399.0,115.0,225.0,3.5,0.75,5.6456138759117245
1,1130,4,100,0,0,1,1,1954.0,148.0,225.0,3.5,0.75,5.6456138759117245
1,1131,13,1101,1,1,2,1,587.0,484.0,90.0,3.5,0.75,3.136452153284292
1,1132,7,111,1,1,2,1,538.0,701.0,225.0,3.5,0.85,3.136452153284292
1,1133,0,0,1,1,4,1,596.0,320.0,225.0,8.0,0.75,5.6456138759117245
1,1134,5,101,0,1,2,0,1095.0,503.0,225.0,3.5,0.75,3.136452153284292
1,1135,5,101,1,1,2,1,1008.0,399.0,225.0,3.5,0.75,3.136452153284292
1,1136,0,0,0,0,3,1,547.0,351.0,225.0,8.0,0.75,5.6456138759117245
1,1137,13,1101,0,0,2,1,1008.0,610.0,90.0,3.5,0.75,3.136452153284292
1,1138,6,110,1,1,3,1,654.0,408.0,225.0,3.5,0.85,5.6456138759117245
1,1139,5,101,0,0,1,1,978.0,746.0,225.0,3.5,0.75,3.136452153284292
1,1140,13,1101,1,1,1,1,1954.0,249.0,90.0,3.5,0.75,3.136452153284292
1,1141,6,110,1,1,3,1,843.0,780.0,225.0,3.5,0.85,5.6456138759117245
1,1142,3,11,1,1,1,1,1424.0,114.0,225.0,8.0,0.85,3.136452153284292
1,1143,5,101,0,0,1,1,1076.0,689.0,225.0,3.5,0.75,3.136452153284292
1,1144,4,100,0,0,3,1,902.0,328.0,225.0,3.5,0.75,5.6456138759117245
1,1145,3,11,0,0,3,1,958.0,477.0,225.0,8.0,0.85,3.136452153284292
1,1146,5,101,0,0,1,1,990.0,138.0,225.0,3.5,0.75,3.136452153284292
1,1147,5,101,0,0,2,1,1598.0,248.0,225.0,3.5,0.75,3.136452153284292
1,1148,12,1100,0,0,2,1,2696.0,1051.0,90.0,3.5,0.75,5.6456138759117245
1,1149,14,1110,1,1,1,1,2172.0,227.0,90.0,3.5,0.85,5.6456138759117245
1,1150,6,110,1,1,2,1,804.0,447.0,225.0,3.5,0.85,5.6456138759117245
1,1151,12,1100,1,1,2,1,894.0,474.0,90.0,3.5,0.75,5.6456138759117245
1,1152,4,100,0,0,3,1,771.0,750.0,225.0,3.5,0.75,5.6456138759117245
1,1153,1,1,0,0,3,1,703.0,216.0,225.0,8.0,0.75,3.136452153284292
1,1154,14,1110,0,1,1,0,1717.0,137.0,90.0,3.5,0.85,5.6456138759117245
1,1155,9,1001,1,1,3,1,597.0,147.0,90.0,8.0,0.75,3.136452153284292
1,1156,5,101,1,0,1,0,1764.0,648.0,225.0,3.5,0.75,3.136452153284292
1,1157,0,0,0,0,3,1,1224.0,981.0,225.0,8.0,0.75,5.6456138759117245
1,1158,11,1011,0,0,2,1,972.0,133.0,90.0,8.0,0.85,3.136452153284292
1,1159,3,11,0,1,1,0,1659.0,96.0,225.0,8.0,0.85,3.136452153284292
1,1160,9,1001,0,0,2,1,713.0,466.0,90.0,8.0,0.75,3.136452153284292
1,1161,6,110,0,0,2,1,845.0,301.0,225.0,3.5,0.85,5.6456138759117245
1,1162,4,100,0,0,1,1,712.0,221.0,225.0,3.5,0.75,5.6456138759117245
1,1163,7,111,1,0,1,0,2068.0,162.0,225.0,3.5,0.85,3.136452153284292
1,1164,5,101,0,0,1,1,1746.0,214.0,225.0,3.5,0.75,3.136452153284292
1,1165,1,1,1,1,2,1,734.0,495.0,225.0,8.0,0.75,3.136452153284292
1,1166,8,1000,0,0,3,1,955.0,194.0,90.0,8.0,0.75,5.6456138759117245
1,1167,8,1000,1,1,4,1,768.0,117.0,90.0,8.0,0.75,5.6456138759117245
1,1168,1,1,0,0,2,1,2306.0,846.0,225.0,8.0,0.75,3.136452153284292
1,1169,7,111,1,1,1,1,1251.0,370.0,225.0,3.5,0.85,3.136452153284292
1,1170,3,11,1,0,2,0,1069.0,597.0,225.0,8.0,0.85,3.136452153284292
1,1171,14,1110,1,1,1,1,1855.0,272.0,90.0,3.5,0.85,5.6456138759117245
1,1172,10,1010,0,0,1,1,1492.0,408.0,90.0,8.0,0.85,5.6456138759117245
1,1173,4,100,0,0,1,1,852.0,226.0,225.0,3.5,0.75,5.6456138759117245
1,1174,0,0,1,1,3,1,444.0,590.0,225.0,8.0,0.75,5.6456138759117245
1,1175,15,1111,0,0,1,1,634.0,223.0,90.0,3.5,0.85,3.136452153284292
1,1176,14,1110,0,0,1,1,824.0,159.0,90.0,3.5,0.85,5.6456138759117245
1,1177,7,111,1,1,3,1,711.0,490.0,225.0,3.5,0.85,3.136452153284292
1,1178,11,1011,1,1,1,1,1266.0,97.0,90.0,8.0,0.85,3.136452153284292
1,1179,14,1110,0,1,1,0,2101.0,98.0,90.0,3.5,0.85,5.6456138759117245
1,1180,14,1110,1,1,1,1,1387.0,93.0,90.0,3.5,0.85,5.6456138759117245
1,1181,6,110,1,1,4,1,521.0,482.0,225.0,3.5,0.85,5.6456138759117245
1,1182,13,1101,1,1,1,1,2341.0,1327.0,90.0,3.5,0.75,3.136452153284292
1,1183,12,1100,0,0,1,1,723.0,384.0,90.0,3.5,0.75,5.6456138759117245
1,1184,7,111,0,1,2,0,742.0,266.0,225.0,3.5,0.85,3.136452153284292
1,1185,11,1011,0,0,1,1,1615.0,95.0,90.0,8.0,0.85,3.136452153284292
1,1186,1,1,0,0,2,1,2087.0,502.0,225.0,8.0,0.75,3.136452153284292
1,1187,6,110,1,1,3,1,715.0,350.0,225.0,3.5,0.85,5.6456138759117245
1,1188,11,1011,1,1,1,1,1539.0,228.0,90.0,8.0,0.85,3.136452153284292
1,1189,14,1110,1,0,1,0,658.0,183.0,90.0,3.5,0.85,5.6456138759117245
1,1190,8,1000,1,1,3,1,610.0,161.0,90.0,8.0,0.75,5.6456138759117245
1,1191,6,110,0,0,2,1,545.0,213.0,225.0,3.5,0.85,5.6456138759117245
1,1192,5,101,0,0,1,1,963.0,127.0,225.0,3.5,0.75,3.136452153284292
1,1193,8,1000,1,1,2,1,595.0,568.0,90.0,8.0,0.75,5.6456138759117245
1,1194,10,1010,0,0,3,1,438.0,354.0,90.0,8.0,0.85,5.6456138759117245
1,1195,5,101,1,1,3,1,685.0,659.0,225.0,3.5,0.75,3.136452153284292
1,1196,0,0,0,0,4,1,454.0,127.0,225.0,8.0,0.75,5.6456138759117245
1,1197,9,1001,1,1,2,1,828.0,407.0,90.0,8.0,0.75,3.136452153284292
1,1198,15,1111,0,0,1,1,2210.0,430.0,90.0,3.5,0.85,3.136452153284292
1,1199,11,1011,0,0,2,1,1439.0,404.0,90.0,8.0,0.85,3.136452153284292
1,1200,4,100,1,1,3,1,635.0,369.0,225.0,3.5,0.75,5.6456138759117245
1,1201,8,1000,0,0,3,1,692.0,435.0,90.0,8.0,0.75,5.6456138759117245
1,1202,15,1111,0,0,1,1,1620.0,564.0,90.0,3.5,0.85,3.136452153284292
1,1203,2,10,0,0,1,1,1694.0,159.0,225.0,8.0,0.85,5.6456138759117245
1,1204,4,100,1,1,3,1,1099.0,466.0,225.0,3.5,0.75,5.6456138759117245
1,1205,6,110,0,0,1,1,931.0,206.0,225.0,3.5,0.85,5.6456138759117245
1,1206,13,1101,1,0,1,0,1490.0,371.0,90.0,3.5,0.75,3.136452153284292
1,1207,2,10,1,1,3,1,786.0,272.0,225.0,8.0,0.85,5.6456138759117245
1,1208,14,1110,1,1,1,1,1614.0,137.0,90.0,3.5,0.85,5.6456138759117245
1,1209,13,1101,0,0,2,1,586.0,239.0,90.0,3.5,0.75,3.136452153284292
1,1210,4,100,0,0,1,1,1686.0,119.0,225.0,3.5,0.75,5.6456138759117245
1,1211,10,1010,1,0,1,0,2030.0,160.0,90.0,8.0,0.85,5.6456138759117245
1,1212,14,1110,1,1,1,1,501.0,538.0,90.0,3.5,0.85,5.6456138759117245
1,1213,10,1010,0,0,2,1,680.0,931.0,90.0,8.0,0.85,5.6456138759117245
1,1214,10,1010,1,1,1,1,1312.0,560.0,90.0,8.0,0.85,5.6456138759117245
1,1215,15,1111,1,0,1,0,1313.0,191.0,90.0,3.5,0.85,3.136452153284292
1,1216,4,100,0,0,1,1,1041.0,107.0,225.0,3.5,0.75,5.6456138759117245
1,1217,9,1001,0,0,2,1,1258.0,344.0,90.0,8.0,0.75,3.136452153284292
1,1218,2,10,1,1,3,1,531.0,135.0,225.0,8.0,0.85,5.6456138759117245
1,1219,2,10,1,1,3,1,633.0,105.0,225.0,8.0,0.85,5.6456138759117245
1,1220,8,1000,1,1,4,1,908.0,114.0,90.0,8.0,0.75,5.6456138759117245
1,1221,8,1000,0,0,3,1,540.0,444.0,90.0,8.0,0.75,5.6456138759117245
1,1222,1,1,0,0,1,1,2015.0,347.0,225.0,8.0,0.75,3.136452153284292
1,1223,3,11,0,0,2,1,1144.0,229.0,225.0,8.0,0.85,3.136452153284292
1,1224,4,100,0,0,2,1,1390.0,311.0,225.0,3.5,0.75,5.6456138759117245
1,1225,8,1000,1,1,3,1,678.0,148.0,90.0,8.0,0.75,5.6456138759117245
1,1226,7,111,0,0,2,1,2309.0,975.0,225.0,3.5,0.85,3.136452153284292
1,1227,15,1111,0,0,4,1,989.0,515.0,90.0,3.5,0.85,3.136452153284292
1,1228,12,1100,1,1,1,1,672.0,581.0,90.0,3.5,0.75,5.6456138759117245
1,1229,15,1111,0,0,2,1,1306.0,344.0,90.0,3.5,0.85,3.136452153284292
1,1230,10,1010,1,1,2,1,861.0,544.0,90.0,8.0,0.85,5.6456138759117245
1,1231,4,100,0,0,3,1,648.0,369.0,225.0,3.5,0.75,5.6456138759117245
1,1232,1,1,1,1,4,1,1248.0,362.0,225.0,8.0,0.75,3.136452153284292
1,1233,12,1100,1,1,3,1,1572.0,562.0,90.0,3.5,0.75,5.6456138759117245
1,1234,2,10,0,0,3,1,583.0,1082.0,225.0,8.0,0.85,5.6456138759117245
1,1235,12,1100,1,1,2,1,1764.0,303.0,90.0,3.5,0.75,5.6456138759117245
1,1236,14,1110,0,0,1,1,826.0,225.0,90.0,3.5,0.85,5.6456138759117245
1,1237,6,110,1,1,1,1,2434.0,210.0,225.0,3.5,0.85,5.6456138759117245
1,1238,11,1011,0,0,1,1,1873.0,207.0,90.0,8.0,0.85,3.136452153284292
1,1239,10,1010,1,1,2,1,1719.0,569.0,90.0,8.0,0.85,5.6456138759117245
1,1240,3,11,1,1,1,1,1194.0,92.0,225.0,8.0,0.85,3.136452153284292
1,1241,9,1001,0,0,3,1,667.0,872.0,90.0,8.0,0.75,3.136452153284292
1,1242,14,1110,1,0,1,0,1998.0,477.0,90.0,3.5,0.85,5.6456138759117245
1,1243,9,1001,0,0,1,1,1793.0,509.0,90.0,8.0,0.75,3.136452153284292
1,1244,3,11,0,0,2,1,1772.0,337.0,225.0,8.0,0.85,3.136452153284292
1,1245,12,1100,0,0,1,1,1996.0,138.0,90.0,3.5,0.75,5.6456138759117245
1,1246,5,101,1,1,2,1,640.0,151.0,225.0,3.5,0.75,3.136452153284292
1,1247,12,1100,0,0,3,1,1530.0,238.0,90.0,3.5,0.75,5.6456138759117245
1,1248,8,1000,1,1,3,1,645.0,251.0,90.0,8.0,0.75,5.6456138759117245
1,1249,9,1001,1,1,3,1,928.0,96.0,90.0,8.0,0.75,3.136452153284292
1,1250,12,1100,1,1,4,1,516.0,77.0,90.0,3.5,0.75,5.6456138759117245
1,1251,1,1,1,1,1,1,1689.0,93.0,225.0,8.0,0.75,3.136452153284292
1,1252,8,1000,1,1,1,1,1207.0,88.0,90.0,8.0,0.75,5.6456138759117245
1,1253,1,1,1,0,1,0,2173.0,146.0,225.0,8.0,0.75,3.136452153284292
1,1254,10,1010,0,0,2,1,832.0,150.0,90.0,8.0,0.85,5.6456138759117245
1,1255,15,1111,0,0,1,1,1692.0,421.0,90.0,3.5,0.85,3.136452153284292
1,1256,9,1001,1,1,2,1,1127.0,622.0,90.0,8.0,0.75,3.136452153284292
1,1257,13,1101,0,1,1,0,1240.0,102.0,90.0,3.5,0.75,3.136452153284292
1,1258,4,100,1,1,2,1,664.0,262.0,225.0,3.5,0.75,5.6456138759117245
1,1259,2,10,0,0,3,1,679.0,457.0,225.0,8.0,0.85,5.6456138759117245
1,1260,8,1000,1,1,4,1,630.0,264.0,90.0,8.0,0.75,5.6456138759117245
1,1261,11,1011,0,0,3,1,621.0,555.0,90.0,8.0,0.85,3.136452153284292
1,1262,11,1011,1,1,1,1,1454.0,565.0,90.0,8.0,0.85,3.136452153284292
1,1263,0,0,0,0,3,1,531.0,300.0,225.0,8.0,0.75,5.6456138759117245
1,1264,2,10,1,1,4,1,1047.0,109.0,225.0,8.0,0.85,5.6456138759117245
1,1265,11,1011,0,0,2,1,691.0,307.0,90.0,8.0,0.85,3.136452153284292
1,1266,0,0,1,1,3,1,1083.0,241.0,225.0,8.0,0.75,5.6456138759117245
1,1267,0,0,1,1,2,1,1221.0,388.0,225.0,8.0,0.75,5.6456138759117245
1,1268,0,0,1,1,1,1,1104.0,97.0,225.0,8.0,0.75,5.6456138759117245
1,1269,9,1001,0,0,1,1,523.0,1119.0,90.0,8.0,0.75,3.136452153284292
1,1270,13,1101,1,1,1,1,1614.0,516.0,90.0,3.5,0.75,3.136452153284292
1,1271,1,1,0,0,2,1,1021.0,493.0,225.0,8.0,0.75,3.136452153284292
1,1272,2,10,1,1,3,1,633.0,466.0,225.0,8.0,0.85,5.6456138759117245
1,1273,3,11,1,1,1,1,2100.0,114.0,225.0,8.0,0.85,3.136452153284292
1,1274,8,1000,1,1,2,1,1168.0,418.0,90.0,8.0,0.75,5.6456138759117245
1,1275,2,10,0,0,3,1,1184.0,407.0,225.0,8.0,0.85,5.6456138759117245
1,1276,7,111,1,1,2,1,2208.0,554.0,225.0,3.5,0.85,3.136452153284292
1,1277,12,1100,0,0,2,1,827.0,493.0,90.0,3.5,0.75,5.6456138759117245
1,1278,2,10,0,1,1,0,1551.0,116.0,225.0,8.0,0.85,5.6456138759117245
1,1279,7,111,0,1,1,0,1348.0,214.0,225.0,3.5,0.85,3.136452153284292
1,1280,0,0,1,1,3,1,666.0,688.0,225.0,8.0,0.75,5.6456138759117245
1,1281,13,1101,0,1,2,0,1088.0,169.0,90.0,3.5,0.75,3.136452153284292
1,1282,0,0,0,0,3,1,584.0,814.0,225.0,8.0,0.75,5.6456138759117245
1,1283,14,1110,1,1,3,1,604.0,249.0,90.0,3.5,0.85,5.6456138759117245
1,1284,3,11,0,0,2,1,510.0,340.0,225.0,8.0,0.85,3.136452153284292
1,1285,5,101,0,0,1,1,737.0,187.0,225.0,3.5,0.75,3.136452153284292
1,1286,0,0,1,1,3,1,459.0,261.0,225.0,8.0,0.75,5.6456138759117245
1,1287,15,1111,1,1,1,1,730.0,97.0,90.0,3.5,0.85,3.136452153284292
1,1288,11,1011,0,0,1,1,748.0,141.0,90.0,8.0,0.85,3.136452153284292
1,1289,3,11,0,0,3,1,941.0,532.0,225.0,8.0,0.85,3.136452153284292
1,1290,2,10,1,1,4,1,530.0,105.0,225.0,8.0,0.85,5.6456138759117245
1,1291,9,1001,0,0,3,1,1453.0,1743.0,90.0,8.0,0.75,3.136452153284292
1,1292,8,1000,0,0,3,1,1347.0,298.0,90.0,8.0,0.75,5.6456138759117245
1,1293,14,1110,0,0,2,1,1307.0,939.0,90.0,3.5,0.85,5.6456138759117245
1,1294,13,1101,0,1,1,0,839.0,91.0,90.0,3.5,0.75,3.136452153284292
1,1295,3,11,1,1,1,1,1520.0,106.0,225.0,8.0,0.85,3.136452153284292
1,1296,12,1100,0,0,2,1,695.0,1964.0,90.0,3.5,0.75,5.6456138759117245
1,1297,1,1,1,1,1,1,1539.0,494.0,225.0,8.0,0.75,3.136452153284292
1,1298,14,1110,1,1,3,1,860.0,66.0,90.0,3.5,0.85,5.6456138759117245
1,1299,2,10,1,1,3,1,1103.0,378.0,225.0,8.0,0.85,5.6456138759117245
1,1300,10,1010,1,1,2,1,1096.0,77.0,90.0,8.0,0.85,5.6456138759117245
1,1301,4,100,0,0,1,1,725.0,115.0,225.0,3.5,0.75,5.6456138759117245
1,1302,5,101,1,0,1,0,1525.0,123.0,225.0,3.5,0.75,3.136452153284292
1,1303,12,1100,1,1,1,1,1317.0,101.0,90.0,3.5,0.75,5.6456138759117245
1,1304,3,11,0,0,2,1,617.0,164.0,225.0,8.0,0.85,3.136452153284292
1,1305,0,0,1,1,2,1,544.0,404.0,225.0,8.0,0.75,5.6456138759117245
1,1306,5,101,0,0,1,1,1176.0,208.0,225.0,3.5,0.75,3.136452153284292
1,1307,7,111,0,0,1,1,917.0,168.0,225.0,3.5,0.85,3.136452153284292
1,1308,3,11,0,0,1,1,855.0,205.0,225.0,8.0,0.85,3.136452153284292
1,1309,9,1001,0,1,1,0,1554.0,89.0,90.0,8.0,0.75,3.136452153284292
1,1310,6,110,1,1,2,1,740.0,133.0,225.0,3.5,0.85,5.6456138759117245
1,1311,6,110,1,1,1,1,672.0,115.0,225.0,3.5,0.85,5.6456138759117245
1,1312,5,101,0,0,2,1,503.0,367.0,225.0,3.5,0.75,3.136452153284292
1,1313,1,1,1,1,3,1,1456.0,150.0,225.0,8.0,0.75,3.136452153284292
1,1314,13,1101,1,1,3,1,823.0,107.0,90.0,3.5,0.75,3.136452153284292
1,1315,10,1010,1,1,3,1,1109.0,199.0,90.0,8.0,0.85,5.6456138759117245
1,1316,9,1001,0,0,2,1,639.0,330.0,90.0,8.0,0.75,3.136452153284292
1,1317,0,0,0,0,3,1,1086.0,654.0,225.0,8.0,0.75,5.6456138759117245
1,1318,12,1100,1,1,3,1,617.0,459.0,90.0,3.5,0.75,5.6456138759117245
1,1319,6,110,0,1,1,0,1765.0,120.0,225.0,3.5,0.85,5.6456138759117245
1,1320,7,111,0,0,1,1,579.0,172.0,225.0,3.5,0.85,3.136452153284292
1,1321,9,1001,1,1,2,1,770.0,201.0,90.0,8.0,0.75,3.136452153284292
1,1322,14,1110,0,0,2,1,1034.0,1066.0,90.0,3.5,0.85,5.6456138759117245
1,1323,14,1110,0,0,1,1,972.0,130.0,90.0,3.5,0.85,5.6456138759117245
1,1324,7,111,0,0,1,1,1180.0,146.0,225.0,3.5,0.85,3.136452153284292
1,1325,1,1,0,0,1,1,1302.0,113.0,225.0,8.0,0.75,3.136452153284292
1,1326,7,111,0,0,1,1,881.0,120.0,225.0,3.5,0.85,3.136452153284292
1,1327,11,1011,0,0,1,1,1522.0,189.0,90.0,8.0,0.85,3.136452153284292
1,1328,8,1000,0,0,2,1,908.0,168.0,90.0,8.0,0.75,5.6456138759117245
1,1329,13,1101,0,0,3,1,869.0,144.0,90.0,3.5,0.75,3.136452153284292
1,1330,13,1101,1,1,1,1,802.0,550.0,90.0,3.5,0.75,3.136452153284292
1,1331,3,11,0,0,1,1,1191.0,392.0,225.0,8.0,0.85,3.136452153284292
1,1332,12,1100,1,1,2,1,554.0,194.0,90.0,3.5,0.75,5.6456138759117245
1,1333,3,11,1,1,1,1,2211.0,483.0,225.0,8.0,0.85,3.136452153284292
1,1334,8,1000,0,0,2,1,1169.0,177.0,90.0,8.0,0.75,5.6456138759117245
1,1335,10,1010,1,1,2,1,853.0,147.0,90.0,8.0,0.85,5.6456138759117245
1,1336,5,101,0,0,1,1,841.0,451.0,225.0,3.5,0.75,3.136452153284292
1,1337,2,10,0,0,3,1,865.0,189.0,225.0,8.0,0.85,5.6456138759117245
1,1338,15,1111,1,0,1,0,1897.0,356.0,90.0,3.5,0.85,3.136452153284292
1,1339,8,1000,0,0,4,1,848.0,327.0,90.0,8.0,0.75,5.6456138759117245
1,1340,3,11,0,0,1,1,1226.0,125.0,225.0,8.0,0.85,3.136452153284292
1,1341,14,1110,0,0,1,1,1634.0,143.0,90.0,3.5,0.85,5.6456138759117245
1,1342,14,1110,0,0,1,1,1787.0,130.0,90.0,3.5,0.85,5.6456138759117245
1,1343,9,1001,0,0,1,1,2852.0,210.0,90.0,8.0,0.75,3.136452153284292
1,1344,9,1001,0,1,1,0,1417.0,138.0,90.0,8.0,0.75,3.136452153284292
1,1345,1,1,0,0,2,1,824.0,128.0,225.0,8.0,0.75,3.136452153284292
1,1346,8,1000,1,1,3,1,694.0,182.0,90.0,8.0,0.75,5.6456138759117245
1,1347,6,110,0,0,2,1,958.0,419.0,225.0,3.5,0.85,5.6456138759117245
1,1348,9,1001,0,1,1,0,2122.0,61.0,90.0,8.0,0.75,3.136452153284292
1,1349,5,101,0,0,1,1,936.0,171.0,225.0,3.5,0.75,3.136452153284292
1,1350,11,1011,0,1,1,0,1331.0,285.0,90.0,8.0,0.85,3.136452153284292
1,1351,11,1011,1,1,2,1,1381.0,513.0,90.0,8.0,0.85,3.136452153284292
1,1352,10,1010,1,1,1,1,1608.0,82.0,90.0,8.0,0.85,5.6456138759117245
1,1353,10,1010,0,0,1,1,489.0,179.0,90.0,8.0,0.85,5.6456138759117245
1,1354,1,1,1,1,2,1,1386.0,159.0,225.0,8.0,0.75,3.136452153284292
1,1355,6,110,0,0,2,1,582.0,595.0,225.0,3.5,0.85,5.6456138759117245
1,1356,7,111,1,1,2,1,672.0,688.0,225.0,3.5,0.85,3.136452153284292
1,1357,2,10,1,1,1,1,2840.0,513.0,225.0,8.0,0.85,5.6456138759117245
1,1358,1,1,1,0,1,0,2589.0,212.0,225.0,8.0,0.75,3.136452153284292
1,1359,3,11,0,0,2,1,832.0,175.0,225.0,8.0,0.85,3.136452153284292
1,1360,12,1100,1,1,1,1,1234.0,120.0,90.0,3.5,0.75,5.6456138759117245
1,1361,11,1011,0,1,1,0,6342.0,122.0,90.0,8.0,0.85,3.136452153284292
1,1362,6,110,1,1,2,1,1220.0,634.0,225.0,3.5,0.85,5.6456138759117245
1,1363,1,1,0,0,2,1,1293.0,657.0,225.0,8.0,0.75,3.136452153284292
1,1364,10,1010,1,1,3,1,1493.0,671.0,90.0,8.0,0.85,5.6456138759117245
1,1365,7,111,1,1,3,1,1547.0,577.0,225.0,3.5,0.85,3.136452153284292
1,1366,5,101,1,1,1,1,1309.0,99.0,225.0,3.5,0.75,3.136452153284292
1,1367,8,1000,0,0,3,1,603.0,230.0,90.0,8.0,0.75,5.6456138759117245
1,1368,7,111,0,0,1,1,1176.0,92.0,225.0,3.5,0.85,3.136452153284292
1,1369,15,1111,1,1,2,1,681.0,163.0,90.0,3.5,0.85,3.136452153284292
1,1370,15,1111,1,1,1,1,922.0,110.0,90.0,3.5,0.85,3.136452153284292
1,1371,1,1,0,0,2,1,836.0,243.0,225.0,8.0,0.75,3.136452153284292
1,1372,7,111,1,1,3,1,920.0,81.0,225.0,3.5,0.85,3.136452153284292
1,1373,11,1011,0,0,1,1,818.0,1618.0,90.0,8.0,0.85,3.136452153284292
1,1374,4,100,1,1,4,1,1265.0,359.0,225.0,3.5,0.75,5.6456138759117245
1,1375,4,100,0,0,2,1,990.0,332.0,225.0,3.5,0.75,5.6456138759117245
1,1376,15,1111,1,1,3,1,902.0,992.0,90.0,3.5,0.85,3.136452153284292
1,1377,8,1000,0,0,3,1,946.0,175.0,90.0,8.0,0.75,5.6456138759117245
1,1378,5,101,1,1,4,1,591.0,486.0,225.0,3.5,0.75,3.136452153284292
1,1379,12,1100,0,0,4,1,666.0,270.0,90.0,3.5,0.75,5.6456138759117245
1,1380,14,1110,0,1,2,0,900.0,277.0,90.0,3.5,0.85,5.6456138759117245
1,1381,15,1111,0,0,1,1,1264.0,131.0,90.0,3.5,0.85,3.136452153284292
1,1382,2,10,0,0,2,1,623.0,136.0,225.0,8.0,0.85,5.6456138759117245
1,1383,7,111,1,1,1,1,679.0,140.0,225.0,3.5,0.85,3.136452153284292
1,1384,3,11,0,0,2,1,525.0,129.0,225.0,8.0,0.85,3.136452153284292
1,1385,6,110,1,1,3,1,662.0,232.0,225.0,3.5,0.85,5.6456138759117245
1,1386,8,1000,0,0,3,1,536.0,900.0,90.0,8.0,0.75,5.6456138759117245
1,1387,4,100,1,1,4,1,540.0,82.0,225.0,3.5,0.75,5.6456138759117245
1,1388,12,1100,0,0,3,1,1070.0,348.0,90.0,3.5,0.75,5.6456138759117245
1,1389,4,100,0,0,1,1,2460.0,101.0,225.0,3.5,0.75,5.6456138759117245
1,1390,13,1101,0,0,2,1,1227.0,78.0,90.0,3.5,0.75,3.136452153284292
1,1391,15,1111,1,0,1,0,1403.0,71.0,90.0,3.5,0.85,3.136452153284292
1,1392,8,1000,1,1,2,1,646.0,228.0,90.0,8.0,0.75,5.6456138759117245
1,1393,10,1010,1,1,1,1,1328.0,212.0,90.0,8.0,0.85,5.6456138759117245
1,1394,12,1100,0,0,2,1,906.0,260.0,90.0,3.5,0.75,5.6456138759117245
1,1395,3,11,1,1,3,1,627.0,125.0,225.0,8.0,0.85,3.136452153284292
1,1396,10,1010,0,0,4,1,629.0,174.0,90.0,8.0,0.85,5.6456138759117245
1,1397,4,100,1,1,4,1,634.0,55.0,225.0,3.5,0.75,5.6456138759117245
1,1398,8,1000,0,0,3,1,745.0,597.0,90.0,8.0,0.75,5.6456138759117245
1,1399,14,1110,1,1,1,1,2499.0,95.0,90.0,3.5,0.85,5.6456138759117245
1,1400,1,1,1,1,2,1,1112.0,70.0,225.0,8.0,0.75,3.136452153284292
1,1401,12,1100,0,0,2,1,577.0,572.0,90.0,3.5,0.75,5.6456138759117245
1,1402,12,1100,1,1,2,1,874.0,198.0,90.0,3.5,0.75,5.6456138759117245
1,1403,7,111,1,1,1,1,1058.0,111.0,225.0,3.5,0.85,3.136452153284292
1,1404,10,1010,0,0,2,1,548.0,192.0,90.0,8.0,0.85,5.6456138759117245
1,1405,12,1100,1,1,3,1,689.0,68.0,90.0,3.5,0.75,5.6456138759117245
1,1406,13,1101,1,1,3,1,1364.0,92.0,90.0,3.5,0.75,3.136452153284292
1,1407,5,101,1,1,1,1,2274.0,511.0,225.0,3.5,0.75,3.136452153284292
1,1408,0,0,1,1,2,1,2902.0,218.0,225.0,8.0,0.75,5.6456138759117245
1,1409,6,110,1,0,1,0,1645.0,152.0,225.0,3.5,0.85,5.6456138759117245
1,1410,14,1110,0,0,3,1,572.0,90.0,90.0,3.5,0.85,5.6456138759117245
1,1411,3,11,0,1,2,0,1104.0,127.0,225.0,8.0,0.85,3.136452153284292
1,1412,8,1000,0,1,1,0,1742.0,104.0,90.0,8.0,0.75,5.6456138759117245
1,1413,15,1111,0,0,1,1,474.0,420.0,90.0,3.5,0.85,3.136452153284292
1,1414,7,111,1,1,2,1,535.0,115.0,225.0,3.5,0.85,3.136452153284292
1,1415,9,1001,0,0,1,1,1446.0,281.0,90.0,8.0,0.75,3.136452153284292
1,1416,0,0,1,1,3,1,703.0,102.0,225.0,8.0,0.75,5.6456138759117245
1,1417,13,1101,0,0,2,1,1280.0,257.0,90.0,3.5,0.75,3.136452153284292
1,1418,9,1001,1,1,2,1,673.0,133.0,90.0,8.0,0.75,3.136452153284292
1,1419,4,100,1,1,3,1,655.0,60.0,225.0,3.5,0.75,5.6456138759117245
1,1420,12,1100,0,0,3,1,1056.0,512.0,90.0,3.5,0.75,5.6456138759117245
1,1421,14,1110,0,0,1,1,1066.0,75.0,90.0,3.5,0.85,5.6456138759117245
1,1422,15,1111,1,1,1,1,1548.0,88.0,90.0,3.5,0.85,3.136452153284292
1,1423,9,1001,1,1,1,1,1637.0,69.0,90.0,8.0,0.75,3.136452153284292
1,1424,0,0,0,0,2,1,537.0,87.0,225.0,8.0,0.75,5.6456138759117245
1,1425,12,1100,0,0,1,1,2578.0,77.0,90.0,3.5,0.75,5.6456138759117245
1,1426,15,1111,0,0,1,1,525.0,106.0,90.0,3.5,0.85,3.136452153284292
1,1427,6,110,1,1,3,1,501.0,605.0,225.0,3.5,0.85,5.6456138759117245
1,1428,11,1011,1,0,1,0,6699.0,600.0,90.0,8.0,0.85,3.136452153284292
1,1429,3,11,1,1,2,1,1310.0,694.0,225.0,8.0,0.85,3.136452153284292
1,1430,6,110,1,1,1,1,1785.0,100.0,225.0,3.5,0.85,5.6456138759117245
1,1431,1,1,0,0,3,1,728.0,111.0,225.0,8.0,0.75,3.136452153284292
1,1432,8,1000,1,1,2,1,2763.0,278.0,90.0,8.0,0.75,5.6456138759117245
1,1433,15,1111,1,1,1,1,3177.0,262.0,90.0,3.5,0.85,3.136452153284292
1,1434,4,100,0,0,2,1,540.0,114.0,225.0,3.5,0.75,5.6456138759117245
1,1435,3,11,0,1,2,0,2315.0,1401.0,225.0,8.0,0.85,3.136452153284292
1,1436,0,0,0,0,2,1,736.0,500.0,225.0,8.0,0.75,5.6456138759117245
1,1437,11,1011,1,1,3,1,607.0,88.0,90.0,8.0,0.85,3.136452153284292
1,1438,9,1001,0,0,1,1,596.0,154.0,90.0,8.0,0.75,3.136452153284292
1,1439,5,101,0,0,1,1,1365.0,104.0,225.0,3.5,0.75,3.136452153284292
1,1440,13,1101,1,1,1,1,2375.0,106.0,90.0,3.5,0.75,3.136452153284292
1,1441,8,1000,1,1,3,1,1662.0,154.0,90.0,8.0,0.75,5.6456138759117245
1,1442,14,1110,0,0,1,1,954.0,111.0,90.0,3.5,0.85,5.6456138759117245
1,1443,15,1111,0,1,1,0,1080.0,79.0,90.0,3.5,0.85,3.136452153284292
1,1444,11,1011,1,1,2,1,1594.0,213.0,90.0,8.0,0.85,3.136452153284292
1,1445,3,11,1,1,1,1,3568.0,1039.0,225.0,8.0,0.85,3.136452153284292
1,1446,1,1,0,0,2,1,577.0,145.0,225.0,8.0,0.75,3.136452153284292
1,1447,0,0,0,0,3,1,1132.0,223.0,225.0,8.0,0.75,5.6456138759117245
1,1448,12,1100,0,0,2,1,1059.0,160.0,90.0,3.5,0.75,5.6456138759117245
1,1449,2,10,0,0,1,1,1000.0,233.0,225.0,8.0,0.85,5.6456138759117245
1,1450,8,1000,0,0,1,1,1490.0,426.0,90.0,8.0,0.75,5.6456138759117245
1,1451,7,111,0,0,1,1,1617.0,130.0,225.0,3.5,0.85,3.136452153284292
1,1452,13,1101,1,1,1,1,897.0,196.0,90.0,3.5,0.75,3.136452153284292
1,1453,1,1,0,1,1,0,1240.0,87.0,225.0,8.0,0.75,3.136452153284292
1,1454,11,1011,0,1,1,0,1877.0,64.0,90.0,8.0,0.85,3.136452153284292
1,1455,3,11,0,1,1,0,1129.0,85.0,225.0,8.0,0.85,3.136452153284292
1,1456,3,11,0,0,2,1,873.0,466.0,225.0,8.0,0.85,3.136452153284292
1,1457,11,1011,1,1,2,1,1019.0,509.0,90.0,8.0,0.85,3.136452153284292
1,1458,12,1100,1,1,1,1,1193.0,682.0,90.0,3.5,0.75,5.6456138759117245
1,1459,13,1101,0,1,1,0,1279.0,209.0,90.0,3.5,0.75,3.136452153284292
1,1460,1,1,0,0,2,1,702.0,343.0,225.0,8.0,0.75,3.136452153284292
1,1461,7,111,1,1,3,1,807.0,1592.0,225.0,3.5,0.85,3.136452153284292
1,1462,9,1001,1,1,2,1,2913.0,483.0,90.0,8.0,0.75,3.136452153284292
1,1463,0,0,1,1,2,1,1606.0,509.0,225.0,8.0,0.75,5.6456138759117245
1,1464,9,1001,0,0,3,1,1419.0,383.0,90.0,8.0,0.75,3.136452153284292
1,1465,0,0,1,1,4,1,536.0,91.0,225.0,8.0,0.75,5.6456138759117245
1,1466,15,1111,1,1,1,1,1118.0,112.0,90.0,3.5,0.85,3.136452153284292
1,1467,2,10,1,1,2,1,1022.0,168.0,225.0,8.0,0.85,5.6456138759117245
1,1468,13,1101,0,0,3,1,625.0,240.0,90.0,3.5,0.75,3.136452153284292
1,1469,11,1011,1,1,3,1,1601.0,291.0,90.0,8.0,0.85,3.136452153284292
1,1470,9,1001,1,0,1,0,1214.0,181.0,90.0,8.0,0.75,3.136452153284292
1,1471,7,111,1,1,2,1,1063.0,164.0,225.0,3.5,0.85,3.136452153284292
1,1472,1,1,0,0,2,1,489.0,215.0,225.0,8.0,0.75,3.136452153284292
1,1473,15,1111,1,1,2,1,1069.0,334.0,90.0,3.5,0.85,3.136452153284292
1,1474,10,1010,0,0,3,1,1499.0,228.0,90.0,8.0,0.85,5.6456138759117245
1,1475,8,1000,0,0,4,1,2290.0,649.0,90.0,8.0,0.75,5.6456138759117245
1,1476,4,100,0,0,3,1,1121.0,784.0,225.0,3.5,0.75,5.6456138759117245
1,1477,10,1010,1,1,2,1,849.0,336.0,90.0,8.0,0.85,5.6456138759117245
1,1478,9,1001,1,1,1,1,1586.0,469.0,90.0,8.0,0.75,3.136452153284292
1,1479,6,110,0,0,1,1,836.0,533.0,225.0,3.5,0.85,5.6456138759117245
1,1480,14,1110,1,1,1,1,858.0,310.0,90.0,3.5,0.85,5.6456138759117245
1,1481,3,11,1,1,2,1,1113.0,196.0,225.0,8.0,0.85,3.136452153284292
1,1482,2,10,1,1,2,1,844.0,125.0,225.0,8.0,0.85,5.6456138759117245
1,1483,4,100,0,0,1,1,739.0,279.0,225.0,3.5,0.75,5.6456138759117245
1,1484,10,1010,1,1,1,1,1502.0,66.0,90.0,8.0,0.85,5.6456138759117245
1,1485,2,10,0,0,2,1,515.0,339.0,225.0,8.0,0.85,5.6456138759117245
1,1486,6,110,0,0,3,1,1031.0,130.0,225.0,3.5,0.85,5.6456138759117245
1,1487,4,100,1,1,4,1,483.0,107.0,225.0,3.5,0.75,5.6456138759117245
1,1488,4,100,0,1,2,0,1487.0,377.0,225.0,3.5,0.75,5.6456138759117245
1,1489,5,101,1,1,1,1,1099.0,512.0,225.0,3.5,0.75,3.136452153284292
1,1490,7,111,0,1,1,0,863.0,85.0,225.0,3.5,0.85,3.136452153284292
1,1491,4,100,1,1,1,1,1063.0,177.0,225.0,3.5,0.75,5.6456138759117245
1,1492,11,1011,0,0,1,1,1056.0,148.0,90.0,8.0,0.85,3.136452153284292
1,1493,2,10,0,0,2,1,912.0,569.0,225.0,8.0,0.85,5.6456138759117245
1,1494,12,1100,0,0,1,1,1444.0,500.0,90.0,3.5,0.75,5.6456138759117245
1,1495,5,101,1,1,3,1,654.0,106.0,225.0,3.5,0.75,3.136452153284292
1,1496,1,1,0,0,1,1,870.0,409.0,225.0,8.0,0.75,3.136452153284292
1,1497,0,0,0,0,2,1,3385.0,618.0,225.0,8.0,0.75,5.6456138759117245
1,1498,4,100,1,1,3,1,769.0,222.0,225.0,3.5,0.75,5.6456138759117245
1,1499,8,1000,0,0,3,1,822.0,1206.0,90.0,8.0,0.75,5.6456138759117245
1,1500,5,101,1,1,2,1,813.0,160.0,225.0,3.5,0.75,3.136452153284292
1,1501,9,1001,1,1,4,1,955.0,203.0,90.0,8.0,0.75,3.136452153284292
1,1502,3,11,0,0,2,1,817.0,367.0,225.0,8.0,0.85,3.136452153284292
1,1503,2,10,0,0,3,1,1218.0,263.0,225.0,8.0,0.85,5.6456138759117245
1,1504,1,1,0,0,2,1,1359.0,228.0,225.0,8.0,0.75,3.136452153284292
1,1505,1,1,1,1,2,1,877.0,472.0,225.0,8.0,0.75,3.136452153284292
